"","TrialNum","Onset","TrueOns","Cond","Sentence","Resp","RT","correct","subind","runnum","cond_type","first","correct_first","group_num","group"
"1",0,0,0.03,2,"A fence walked to the mother.","nonsense",3.49229097366,1,"0_009","1","active_ns",0,0,1,"A_first"
"2",1,10.72,10.74,3,"The shirt was stained by mud.","sense",5.71239614487,1,"0_009","1","passive_s",1,1,1,"A_first"
"3",2,21.39,21.41,4,"Fire was licked by a banana.","nonsense",3.54347896576,1,"0_009","1","passive_ns",1,1,1,"A_first"
"4",3,38.56,38.57,1,"The banker counted the money.","sense",2.54493284225,1,"0_009","1","active_s",1,1,1,"A_first"
"5",4,54.45,54.46,4,"Pie was raised by the letter.","nonsense",4.43052697182,1,"0_009","1","passive_ns",1,1,1,"A_first"
"6",5,64.83,64.84,1,"The boy cleared off the table.","sense",2.70104789734,1,"0_009","1","active_s",1,1,1,"A_first"
"7",6,80.32,80.33,4,"A rope was sold by the frog.","nonsense",3.67592787743,1,"0_009","1","passive_ns",1,1,1,"A_first"
"8",7,90.96,90.97,2,"The snake asked for the father.","nonsense",5.52585411072,1,"0_009","1","active_ns",1,1,1,"A_first"
"9",8,106.1,106.11,2,"A basement won the family.","sense",6.37172794342,0,"0_009","1","active_ns",1,0,1,"A_first"
"10",9,116.71,116.72,1,"A tiger scared the zebra.","sense",2.51631903648,1,"0_009","1","active_s",1,1,1,"A_first"
"11",10,131.58,131.59,1,"A bird dropped the worm.","sense",3.58711910248,1,"0_009","1","active_s",1,1,1,"A_first"
"12",11,143.41,143.43,4,"The girl was told by a fork.","nonsense",4.86519002914,1,"0_009","1","passive_ns",1,1,1,"A_first"
"13",12,154.13,154.15,4,"Bread was scratched by a tray.","nonsense",5.07641911507,1,"0_009","1","passive_ns",1,1,1,"A_first"
"14",13,164.48,164.48,3,"The lamp was bought by the sister.",NA,NA,4,"0_009","1","passive_s",1,0,1,"A_first"
"15",14,182.42,182.43,1,"The uncle put sugar in the tea.","sense",7.01002001762,1,"0_009","1","active_s",1,1,1,"A_first"
"16",15,193.7,193.71,2,"A hen carried the dancer.","nonsense",4.18725800514,1,"0_009","1","active_ns",1,1,1,"A_first"
"17",16,206.11,206.12,4,"A chair was tasted by a frame.","nonsense",4.16658091545,1,"0_009","1","passive_ns",1,1,1,"A_first"
"18",17,223.68,223.69,3,"The show was seen by a child.","sense",5.92426991463,1,"0_009","1","passive_s",1,1,1,"A_first"
"19",18,234.74,234.75,3,"Soup was served by a woman.","sense",5.8121111393,1,"0_009","1","passive_s",1,1,1,"A_first"
"20",19,250.08,250.09,2,"The iron borrowed a teacher.","nonsense",3.6659579277,1,"0_009","1","active_ns",1,1,1,"A_first"
"21",20,260.45,260.46,3,"A cat was saved by a king.","sense",5.51409983635,1,"0_009","1","passive_s",1,1,1,"A_first"
"22",21,270.85,270.86,1,"The queen planted a flower.","sense",3.43304991722,1,"0_009","1","active_s",1,1,1,"A_first"
"23",22,280.9,280.92,3,"A rug was rolled by the actor.","nonsense",5.60632395744,0,"0_009","1","passive_s",1,0,1,"A_first"
"24",23,293.63,293.64,2,"The couch sang to the duck.","nonsense",3.62780189514,1,"0_009","1","active_ns",1,1,1,"A_first"
"25",24,304.11,304.13,4,"Pasta was waved by a fish.","nonsense",3.66849112511,1,"0_009","1","passive_ns",1,1,1,"A_first"
"26",25,314.89,314.9,1,"A mouse chewed on the cheese.","sense",4.22380590439,1,"0_009","1","active_s",1,1,1,"A_first"
"27",26,325.02,325.03,3,"A phone was used by a doctor.","sense",3.0033929348,1,"0_009","1","passive_s",1,1,1,"A_first"
"28",27,339.56,339.57,2,"The ear dressed a student.","nonsense",5.04358816147,1,"0_009","1","active_ns",1,1,1,"A_first"
"29",28,350.98,350.99,1,"A fly entered the house.","sense",3.11172294617,1,"0_009","1","active_s",1,1,1,"A_first"
"30",29,368.12,368.14,4,"A cup was cut by the pillow.","nonsense",4.94172000885,1,"0_009","1","passive_ns",1,1,1,"A_first"
"31",30,380.08,380.09,3,"Pizza was cooked by the man.",NA,NA,4,"0_009","1","passive_s",1,0,1,"A_first"
"32",31,395.78,395.8,2,"A joke hugged the dragon.","nonsense",4.06914615631,1,"0_009","1","active_ns",1,1,1,"A_first"
"33",0,0,0.03,1,"A cousin wanted a pillow.","sense",2.18716812134,1,"0_009","2","active_s",1,1,1,"A_first"
"34",1,10.16,10.17,2,"The woman scared the paper.","nonsense",3.30098891258,1,"0_009","2","active_ns",1,1,1,"A_first"
"35",2,25.97,25.98,3,"A home was entered by the men.","sense",4.25006484985,1,"0_009","2","passive_s",1,1,1,"A_first"
"36",3,40.97,40.98,3,"The plum was tasted by a bear.","nonsense",3.34008789062,0,"0_009","2","passive_s",1,0,1,"A_first"
"37",4,53.69,53.71,2,"The barn barked at the driver.","nonsense",6.23376512527,1,"0_009","2","active_ns",1,1,1,"A_first"
"38",5,64.57,64.58,3,"A song was sung by the cowboy.","sense",5.22006201744,1,"0_009","2","passive_s",1,1,1,"A_first"
"39",6,75.24,75.25,4,"A chicken was asked by a bell.","nonsense",3.21740293503,1,"0_009","2","passive_ns",1,1,1,"A_first"
"40",7,86.91,86.92,1,"The actress watched a show.","sense",4.40409588814,1,"0_009","2","active_s",1,1,1,"A_first"
"41",8,103.03,103.04,2,"The key opened the carrot.","nonsense",4.61136102676,1,"0_009","2","active_ns",1,1,1,"A_first"
"42",9,118.89,118.9,4,"Pizza was used by a book.","nonsense",4.9883389473,1,"0_009","2","passive_ns",1,1,1,"A_first"
"43",10,128.92,128.94,1,"A raccoon scratched at the box.","nonsense",5.31397485733,0,"0_009","2","active_s",1,0,1,"A_first"
"44",11,141.14,141.16,3,"The car was chased by a dog.","sense",3.94570398331,1,"0_009","2","passive_s",1,1,1,"A_first"
"45",12,151.22,151.23,3,"A rope was pulled by the ape.","nonsense",5.73440504074,0,"0_009","2","passive_s",1,0,1,"A_first"
"46",13,161.68,161.68,4,"A horse was peeled by salt.","nonsense",5.37721681595,1,"0_009","2","passive_ns",1,1,1,"A_first"
"47",14,172.84,172.85,2,"A boat raced in the library.","nonsense",6.20813322067,1,"0_009","2","active_ns",1,1,1,"A_first"
"48",15,183.02,183.03,3,"The movie was played by dad.","sense",4.50986099243,1,"0_009","2","passive_s",1,1,1,"A_first"
"49",16,195.2,195.21,4,"The soup was caught by a ring.","nonsense",4.57489895821,1,"0_009","2","passive_ns",1,1,1,"A_first"
"50",17,212.76,212.77,2,"The sock listened to the pig.","nonsense",4.4200630188,1,"0_009","2","active_ns",1,1,1,"A_first"
"51",18,223.41,223.43,1,"A clown let go of a balloon.","sense",6.99597501755,1,"0_009","2","active_s",1,1,1,"A_first"
"52",19,237.03,237.05,4,"The boy was owned by a lamp.","nonsense",5.887155056,1,"0_009","2","passive_ns",1,1,1,"A_first"
"53",20,248.04,248.05,1,"A falcon grabbed the egg.","nonsense",5.21588587761,0,"0_009","2","active_s",1,0,1,"A_first"
"54",21,258.46,258.47,3,"The test was read by a teacher.","sense",4.86623716354,1,"0_009","2","passive_s",1,1,1,"A_first"
"55",22,274.9,274.91,1,"The mother carried a cake.","sense",4.8164639473,1,"0_009","2","active_s",1,1,1,"A_first"
"56",23,289.51,289.52,4,"A table was planted by a kid.","nonsense",4.27092909813,1,"0_009","2","passive_ns",1,1,1,"A_first"
"57",24,303.52,303.53,2,"The flag roared at a flower.","nonsense",7.0176680088,1,"0_009","2","active_ns",1,1,1,"A_first"
"58",25,319.75,319.77,1,"A girl kicked the ball.","sense",3.15111088753,1,"0_009","2","active_s",1,1,1,"A_first"
"59",26,329.89,329.9,1,"The baker stirred the spoon.","nonsense",5.88718414307,0,"0_009","2","active_s",1,0,1,"A_first"
"60",27,343.4,343.41,4,"The door was eaten by a pot.","nonsense",3.5036740303,1,"0_009","2","passive_ns",1,1,1,"A_first"
"61",28,353.98,354,2,"A goat graded the mirror.","nonsense",4.73923611641,1,"0_009","2","active_ns",1,1,1,"A_first"
"62",29,370.82,370.84,3,"Seed was pecked by a hen.","sense",7.7398660183,1,"0_009","2","passive_s",1,1,1,"A_first"
"63",30,382.44,382.46,4,"A king was chewed by a tree.","nonsense",3.8424050808,1,"0_009","2","passive_ns",1,1,1,"A_first"
"64",31,392.48,392.5,2,"The banana lost the worm.","nonsense",4.05415487289,1,"0_009","2","active_ns",1,1,1,"A_first"
"65",0,0,0.03,4,"A test was cooked by a bat.","nonsense",4.42282319069,1,"0_013","1","passive_ns",1,1,1,"A_first"
"66",1,10.89,10.91,2,"The broom grabbed the queen.","nonsense",5.22400307655,1,"0_013","1","active_ns",1,1,1,"A_first"
"67",2,21.08,21.09,3,"The shot was given by a nurse.","sense",5.26478600502,1,"0_013","1","passive_s",1,1,1,"A_first"
"68",3,36.88,36.9,2,"A shirt chopped at the tray.","nonsense",3.62478899956,1,"0_013","1","active_ns",1,1,1,"A_first"
"69",4,50.82,50.84,1,"The lion roared at the meat.","nonsense",4.56210708618,0,"0_013","1","active_s",1,0,1,"A_first"
"70",5,61.13,61.14,4,"The mirror was read by a car.","nonsense",6.90633487701,1,"0_013","1","passive_ns",1,1,1,"A_first"
"71",6,75.94,75.95,3,"The grass was moved by wind.","sense",3.73957300186,1,"0_013","1","passive_s",1,1,1,"A_first"
"72",7,87.72,87.74,3,"A hand was licked by a puppy.","sense",5.98682117462,1,"0_013","1","passive_s",1,1,1,"A_first"
"73",8,99.72,99.72,4,"A song was picked by a cat.","nonsense",5.08877420425,1,"0_013","1","passive_ns",1,1,1,"A_first"
"74",9,111.38,111.4,4,"The dog was raised by a spoon.","nonsense",3.9495370388,1,"0_013","1","passive_ns",1,1,1,"A_first"
"75",10,122.22,122.23,1,"The worker built the barn.","sense",6.43222308159,1,"0_013","1","active_s",1,1,1,"A_first"
"76",11,134.13,134.14,2,"The table climbed on a brother.","nonsense",4.63672018051,1,"0_013","1","active_ns",1,1,1,"A_first"
"77",12,146.54,146.54,2,"A game owned the doctor.","nonsense",4.58188009262,1,"0_013","1","active_ns",1,1,1,"A_first"
"78",13,158.49,158.5,3,"Tea was stirred by the aunt.","sense",5.82851004601,1,"0_013","1","passive_s",1,1,1,"A_first"
"79",14,169.83,169.84,1,"The chicken ate some seed.","sense",3.0996389389,1,"0_013","1","active_s",1,1,1,"A_first"
"80",15,179.98,179.99,1,"A woman bought a pizza.","sense",3.0928170681,1,"0_013","1","active_s",1,1,1,"A_first"
"81",16,190.27,190.28,2,"The actress chased the sugar.","nonsense",4.48362803459,1,"0_013","1","active_ns",1,1,1,"A_first"
"82",17,200.64,200.65,3,"A worm was dropped by the bird.","nonsense",3.42082715034,0,"0_013","1","passive_s",1,0,1,"A_first"
"83",18,215.75,215.76,1,"The father played the movie.","sense",3.50798296928,1,"0_013","1","active_s",1,1,1,"A_first"
"84",19,225.84,225.84,3,"A gift was opened by a boy.","sense",3.82488489151,1,"0_013","1","passive_s",1,1,1,"A_first"
"85",20,235.87,235.88,1,"The sheep escaped from the wolf.","sense",4.99685001373,1,"0_013","1","active_s",1,1,1,"A_first"
"86",21,247.77,247.79,2,"The pillow jumped at a bear.","nonsense",5.01011490822,1,"0_013","1","active_ns",1,1,1,"A_first"
"87",22,257.97,257.97,3,"A pig was scared by a fox.","sense",5.42708206177,1,"0_013","1","passive_s",1,1,1,"A_first"
"88",23,268.09,268.09,3,"A wall was marked with paint.","sense",6.35741400719,1,"0_013","1","passive_s",1,1,1,"A_first"
"89",24,280.16,280.17,1,"The cattle listened to the bell.","sense",7.56732201576,1,"0_013","1","active_s",1,1,1,"A_first"
"90",25,296.87,296.89,4,"The phone was boiled by a rat.","nonsense",4.71610212326,1,"0_013","1","passive_ns",1,1,1,"A_first"
"91",26,312.85,312.86,2,"A ring prepared for a potato.","nonsense",7.74053192139,1,"0_013","1","active_ns",1,1,1,"A_first"
"92",27,330.61,330.62,4,"Mud was dressed by air.","nonsense",4.93859410286,1,"0_013","1","passive_ns",1,1,1,"A_first"
"93",28,343.48,343.49,1,"The baby rolled in the crib.","sense",3.10002017021,1,"0_013","1","active_s",1,1,1,"A_first"
"94",29,360.32,360.33,4,"Dirt was borrowed by the chalk.","nonsense",6.51129698753,1,"0_013","1","passive_ns",1,1,1,"A_first"
"95",30,370.6,370.62,2,"A plate stained a kitten.",NA,NA,4,"0_013","1","active_ns",1,0,1,"A_first"
"96",31,381.02,381.02,4,"The hill was addressed by soap.","nonsense",5.18500804901,1,"0_013","1","passive_ns",1,1,1,"A_first"
"97",0,0,0.03,1,"The child peeled the banana.","nonsense",3.59366202354,0,"0_013","2","active_s",1,0,1,"A_first"
"98",1,10.16,10.17,2,"The store cooked on the grass.","nonsense",3.54664206505,1,"0_013","2","active_ns",1,1,1,"A_first"
"99",2,25.97,25.98,3,"Pie was made by a cousin.","sense",4.87942290306,1,"0_013","2","passive_s",1,1,1,"A_first"
"100",3,40.97,40.98,3,"A fence was jumped by a horse.","sense",6.14373207092,1,"0_013","2","passive_s",1,1,1,"A_first"
"101",4,53.69,53.71,2,"The rabbit bought the worker.","nonsense",3.28615903854,1,"0_013","2","active_ns",1,1,1,"A_first"
"102",5,64.57,64.58,3,"A joke was told by the queen.","sense",5.23651599884,1,"0_013","2","passive_s",1,1,1,"A_first"
"103",6,75.24,75.25,4,"The woman was pulled by a nut.","sense",5.20866107941,0,"0_013","2","passive_ns",1,0,1,"A_first"
"104",7,86.91,86.92,1,"A mom addressed the letter.","sense",3.86827516556,1,"0_013","2","active_s",1,1,1,"A_first"
"105",8,103.03,103.04,2,"The soup hired a cowboy.","nonsense",4.16968297958,1,"0_013","2","active_ns",1,1,1,"A_first"
"106",9,118.89,118.9,4,"Iron was chased by the bee.","sense",5.28048801422,0,"0_013","2","passive_ns",1,0,1,"A_first"
"107",10,128.92,128.94,1,"The bear tasted the apple.","nonsense",5.32439899445,0,"0_013","2","active_s",1,0,1,"A_first"
"108",11,141.14,141.16,3,"The ring was owned by a dancer.","nonsense",6.73715019226,0,"0_013","2","passive_s",1,0,1,"A_first"
"109",12,151.22,151.23,3,"The book was read by a friend.","sense",5.7586350441,1,"0_013","2","passive_s",1,1,1,"A_first"
"110",13,161.68,161.68,4,"Sugar was moved by the sock.","sense",5.68170714378,0,"0_013","2","passive_ns",1,0,1,"A_first"
"111",14,172.84,172.85,2,"A chicken shopped at a movie.","nonsense",5.48067116737,1,"0_013","2","active_ns",1,1,1,"A_first"
"112",15,183.02,183.03,3,"Clay was rolled by the artist.","sense",7.92416715622,1,"0_013","2","passive_s",1,1,1,"A_first"
"113",16,195.2,195.21,4,"A ball was prepared by glass.","nonsense",3.4961400032,1,"0_013","2","passive_ns",1,1,1,"A_first"
"114",17,212.76,212.77,2,"The money counted the singer.","nonsense",4.19352912903,1,"0_013","2","active_ns",1,1,1,"A_first"
"115",18,223.41,223.43,1,"A nurse helped a student.","sense",4.38434505463,1,"0_013","2","active_s",1,1,1,"A_first"
"116",19,237.03,237.05,4,"A wolf was found by a fan.","nonsense",4.89950203896,1,"0_013","2","passive_ns",1,1,1,"A_first"
"117",20,248.04,248.05,1,"The aunt walked on the boat.","sense",5.40430402756,1,"0_013","2","active_s",1,1,1,"A_first"
"118",21,258.46,258.47,3,"Meat was eaten by a lion.","sense",7.82369995117,1,"0_013","2","passive_s",1,1,1,"A_first"
"119",22,274.9,274.91,1,"A driver honked at the walker.","nonsense",5.43601703644,0,"0_013","2","active_s",1,0,1,"A_first"
"120",23,289.51,289.52,4,"The mouse was graded by a flag.","nonsense",4.61529707909,1,"0_013","2","passive_ns",1,1,1,"A_first"
"121",24,303.52,303.53,2,"The puppy scored a dress.","nonsense",4.80496692657,1,"0_013","2","active_ns",1,1,1,"A_first"
"122",25,319.75,319.77,1,"A tree was planted in dirt.","sense",4.70463895798,1,"0_013","2","active_s",1,1,1,"A_first"
"123",26,329.89,329.9,1,"A family baked some bread.","sense",3.43934011459,1,"0_013","2","active_s",1,1,1,"A_first"
"124",27,343.4,343.41,4,"The mat was raced by a fox.","nonsense",5.97524905205,1,"0_013","2","passive_ns",1,1,1,"A_first"
"125",28,353.98,354,2,"A candle sold the question.","nonsense",4.64999890327,1,"0_013","2","active_ns",1,1,1,"A_first"
"126",29,370.82,370.84,3,"The spoon was waved by a cook.","sense",6.33708715439,1,"0_013","2","passive_s",1,1,1,"A_first"
"127",30,382.44,382.46,4,"A card was scared by a baby.",NA,NA,4,"0_013","2","passive_ns",1,0,1,"A_first"
"128",31,392.48,392.5,2,"The fork called to a sister.",NA,NA,4,"0_013","2","active_ns",1,0,1,"A_first"
"129",0,0,0.03,2,"The house chewed on the phone.","nonsense",3.61535191536,1,"0_013","3","active_ns",1,1,1,"A_first"
"130",1,10.72,10.74,3,"The door was shut by wind.","sense",2.64405012131,1,"0_013","3","passive_s",1,1,1,"A_first"
"131",2,21.39,21.41,4,"A father was spotted by the egg.","sense",5.65161395073,0,"0_013","3","passive_ns",1,0,1,"A_first"
"132",3,38.56,38.57,1,"The clerk asked a question.","nonsense",4.8249309063,0,"0_013","3","active_s",1,0,1,"A_first"
"133",4,54.45,54.46,4,"The actor was kicked by cake.","nonsense",6.58565402031,1,"0_013","3","passive_ns",1,1,1,"A_first"
"134",5,64.83,64.84,1,"A king wished for a horse.","nonsense",7.60428595543,0,"0_013","3","active_s",1,0,1,"A_first"
"135",6,80.32,80.33,4,"The bird was told by the boat.","nonsense",3.68397212029,1,"0_013","3","passive_ns",1,1,1,"A_first"
"136",7,90.96,90.97,2,"A rope listened to the salt.","nonsense",5.59388709068,1,"0_013","3","active_ns",1,1,1,"A_first"
"137",8,106.1,106.11,2,"The tiger played a letter.","nonsense",3.11243915558,1,"0_013","3","active_ns",1,1,1,"A_first"
"138",9,116.71,116.72,1,"The mother shopped at the store.","sense",6.12844085693,1,"0_013","3","active_s",1,1,1,"A_first"
"139",10,131.58,131.59,1,"A sister hugged the dancer.","sense",4.25018191338,1,"0_013","3","active_s",1,1,1,"A_first"
"140",11,143.41,143.43,4,"Meat was watched by an ear.","nonsense",4.78328609467,1,"0_013","3","passive_ns",1,1,1,"A_first"
"141",12,154.13,154.15,4,"A worm was jumped by a dress.","nonsense",4.82645821571,1,"0_013","3","passive_ns",1,1,1,"A_first"
"142",13,164.48,164.48,3,"Money was won by a team.","sense",4.22914409637,1,"0_013","3","passive_s",1,1,1,"A_first"
"143",14,182.42,182.43,1,"The friend borrowed a book.","sense",4.32822299004,1,"0_013","3","active_s",1,1,1,"A_first"
"144",15,193.7,193.71,2,"The lamp wrote to the nurse.","nonsense",5.05134296417,1,"0_013","3","active_ns",1,1,1,"A_first"
"145",16,206.11,206.12,4,"A clown was bought by the hen.","nonsense",5.72272610664,1,"0_013","3","passive_ns",1,1,1,"A_first"
"146",17,223.68,223.69,3,"The honey was made by a bee.","sense",4.18922591209,1,"0_013","3","passive_s",1,1,1,"A_first"
"147",18,234.74,234.75,3,"Water was splashed by a bear.","sense",5.03902602196,1,"0_013","3","passive_s",1,1,1,"A_first"
"148",19,250.08,250.09,2,"The seed raised a turtle.","sense",3.95272898674,0,"0_013","3","active_ns",1,0,1,"A_first"
"149",20,260.45,260.46,3,"A barn was built by the uncle.","sense",5.91415095329,1,"0_013","3","passive_s",1,1,1,"A_first"
"150",21,270.85,270.86,1,"The cowboy cooked some pasta.","sense",4.15626311302,1,"0_013","3","active_s",1,1,1,"A_first"
"151",22,280.9,280.92,3,"A snake was caught by a girl.","sense",5.65849113464,1,"0_013","3","passive_s",1,1,1,"A_first"
"152",23,293.63,293.64,2,"The soap tasted the monkey.","nonsense",5.98085594177,1,"0_013","3","active_ns",1,1,1,"A_first"
"153",24,304.11,304.13,4,"A box was walked by a duck.","nonsense",3.72177290916,1,"0_013","3","passive_ns",1,1,1,"A_first"
"154",25,314.89,314.9,1,"A brother opened the present.","sense",4.91955184937,1,"0_013","3","active_s",1,1,1,"A_first"
"155",26,325.02,325.03,3,"Bread was picked by a boy.","nonsense",4.87465286255,0,"0_013","3","passive_s",1,0,1,"A_first"
"156",27,339.56,339.57,2,"The zebra milked the show.","nonsense",4.10258793831,1,"0_013","3","active_ns",1,1,1,"A_first"
"157",28,350.98,350.99,1,"The farmer owned a broom.","sense",4.57770395279,1,"0_013","3","active_s",1,1,1,"A_first"
"158",29,368.12,368.14,4,"A queen was lost by a pen.","nonsense",3.96273112297,1,"0_013","3","passive_ns",1,1,1,"A_first"
"159",30,380.08,380.09,3,"A hill was climbed by the bug.",NA,NA,4,"0_013","3","passive_s",1,0,1,"A_first"
"160",31,395.78,395.8,2,"A pizza dropped the cousin.","nonsense",3.85816383362,1,"0_013","3","active_ns",1,1,1,"A_first"
"161",0,0,0.03,4,"A worm was jumped by a dress.","nonsense",4.02065205574,1,"0_018","1","passive_ns",1,1,1,"A_first"
"162",1,10.89,10.91,2,"A pizza dropped the cousin.","nonsense",3.98078894615,1,"0_018","1","active_ns",1,1,1,"A_first"
"163",2,21.08,21.09,3,"A hill was climbed by the bug.","sense",5.24358797073,1,"0_018","1","passive_s",1,1,1,"A_first"
"164",3,36.88,36.9,2,"The zebra milked the show.","nonsense",4.53552699089,1,"0_018","1","active_ns",1,1,1,"A_first"
"165",4,50.82,50.84,1,"The farmer owned a broom.","sense",4.53788399696,1,"0_018","1","active_s",1,1,1,"A_first"
"166",5,61.13,61.14,4,"A queen was lost by a pen.","nonsense",3.43190908432,1,"0_018","1","passive_ns",1,1,1,"A_first"
"167",6,75.94,75.95,3,"Bread was picked by a boy.","nonsense",3.79142785072,0,"0_018","1","passive_s",1,0,1,"A_first"
"168",7,87.72,87.74,3,"A snake was caught by a girl.","sense",3.65662002563,1,"0_018","1","passive_s",1,1,1,"A_first"
"169",8,99.72,99.72,4,"A box was walked by a duck.","nonsense",4.53963112831,1,"0_018","1","passive_ns",1,1,1,"A_first"
"170",9,111.38,111.4,4,"Meat was watched by an ear.","nonsense",4.750467062,1,"0_018","1","passive_ns",1,1,1,"A_first"
"171",10,122.22,122.23,1,"A brother opened the present.","sense",3.15490102768,1,"0_018","1","active_s",1,1,1,"A_first"
"172",11,134.13,134.14,2,"The soap tasted the monkey.","nonsense",3.91642689705,1,"0_018","1","active_ns",1,1,1,"A_first"
"173",12,146.54,146.54,2,"The seed raised a turtle.","nonsense",5.17779588699,1,"0_018","1","active_ns",1,1,1,"A_first"
"174",13,158.49,158.5,3,"A barn was built by the uncle.","nonsense",4.06108689308,0,"0_018","1","passive_s",1,0,1,"A_first"
"175",14,169.83,169.84,1,"The cowboy cooked some pasta.","nonsense",5.30343294144,0,"0_018","1","active_s",1,0,1,"A_first"
"176",15,179.98,180.01,1,"A sister hugged the dancer.","nonsense",4.88187193871,0,"0_018","1","active_s",1,0,1,"A_first"
"177",16,190.27,190.28,2,"The tiger played a letter.","nonsense",3.88519906998,1,"0_018","1","active_ns",1,1,1,"A_first"
"178",17,200.64,200.65,3,"Water was splashed by a bear.","sense",3.59270787239,1,"0_018","1","passive_s",1,1,1,"A_first"
"179",18,215.75,215.76,1,"The friend borrowed a book.","nonsense",4.89090800285,0,"0_018","1","active_s",1,0,1,"A_first"
"180",19,225.84,225.84,3,"The honey was made by a bee.","sense",3.36252117157,1,"0_018","1","passive_s",1,1,1,"A_first"
"181",20,235.87,235.88,1,"The mother shopped at the store.","sense",3.59943604469,1,"0_018","1","active_s",1,1,1,"A_first"
"182",21,247.77,247.79,2,"A rope listened to the salt.","nonsense",2.90194797516,1,"0_018","1","active_ns",1,1,1,"A_first"
"183",22,257.97,257.97,3,"Money was won by a team.","nonsense",3.75370907784,0,"0_018","1","passive_s",1,0,1,"A_first"
"184",23,268.09,268.09,3,"The door was shut by wind.","nonsense",4.4592628479,0,"0_018","1","passive_s",1,0,1,"A_first"
"185",24,280.16,280.17,1,"A king wished for a horse.","sense",4.41710114479,1,"0_018","1","active_s",1,1,1,"A_first"
"186",25,296.87,296.89,4,"A clown was bought by the hen.","nonsense",5.45291399956,1,"0_018","1","passive_ns",1,1,1,"A_first"
"187",26,312.85,312.86,2,"The lamp wrote to the nurse.","nonsense",5.23516201973,1,"0_018","1","active_ns",1,1,1,"A_first"
"188",27,330.61,330.62,4,"The actor was kicked by cake.","nonsense",2.7543129921,1,"0_018","1","passive_ns",1,1,1,"A_first"
"189",28,343.48,343.49,1,"The clerk asked a question.","sense",4.40786409378,1,"0_018","1","active_s",1,1,1,"A_first"
"190",29,360.32,360.33,4,"A father was spotted by the egg.","nonsense",3.83501791954,1,"0_018","1","passive_ns",1,1,1,"A_first"
"191",30,370.6,370.62,2,"The house chewed on the phone.","nonsense",4.32074308395,1,"0_018","1","active_ns",1,1,1,"A_first"
"192",31,381.02,381.04,4,"The bird was told by the boat.","nonsense",4.86709594727,1,"0_018","1","passive_ns",1,1,1,"A_first"
"193",0,0,0.03,1,"The child peeled the banana.","sense",4.25225996971,1,"0_018","2","active_s",1,1,1,"A_first"
"194",1,10.16,10.17,2,"The store cooked on the grass.","nonsense",4.55999398232,1,"0_018","2","active_ns",1,1,1,"A_first"
"195",2,25.97,25.98,3,"Pie was made by a cousin.","nonsense",4.86490678787,0,"0_018","2","passive_s",1,0,1,"A_first"
"196",3,40.97,40.98,3,"A fence was jumped by a horse.","sense",4.40212607384,1,"0_018","2","passive_s",1,1,1,"A_first"
"197",4,53.69,53.71,2,"The rabbit bought the worker.","nonsense",4.73070001602,1,"0_018","2","active_ns",1,1,1,"A_first"
"198",5,64.57,64.58,3,"A joke was told by the queen.","sense",4.29788589478,1,"0_018","2","passive_s",1,1,1,"A_first"
"199",6,75.24,75.25,4,"The woman was pulled by a nut.","nonsense",4.2931201458,1,"0_018","2","passive_ns",1,1,1,"A_first"
"200",7,86.91,86.92,1,"A mom addressed the letter.","sense",6.72798585892,1,"0_018","2","active_s",1,1,1,"A_first"
"201",8,103.03,103.04,2,"The soup hired a cowboy.","nonsense",4.09515690804,1,"0_018","2","active_ns",1,1,1,"A_first"
"202",9,118.89,118.9,4,"Iron was chased by the bee.","nonsense",4.95916008949,1,"0_018","2","passive_ns",1,1,1,"A_first"
"203",10,128.92,128.94,1,"The bear tasted the apple.","sense",4.27372217178,1,"0_018","2","active_s",1,1,1,"A_first"
"204",11,141.14,141.16,3,"The ring was owned by a dancer.","nonsense",5.03550195694,0,"0_018","2","passive_s",1,0,1,"A_first"
"205",12,151.22,151.23,3,"The book was read by a friend.","sense",4.6221370697,1,"0_018","2","passive_s",1,1,1,"A_first"
"206",13,161.68,161.7,4,"Sugar was moved by the sock.","nonsense",3.88345098495,1,"0_018","2","passive_ns",1,1,1,"A_first"
"207",14,172.84,172.85,2,"A chicken shopped at a movie.","nonsense",3.78413105011,1,"0_018","2","active_ns",1,1,1,"A_first"
"208",15,183.02,183.03,3,"Clay was rolled by the artist.","sense",6.11369585991,1,"0_018","2","passive_s",1,1,1,"A_first"
"209",16,195.2,195.21,4,"A ball was prepared by glass.","nonsense",6.44170880318,1,"0_018","2","passive_ns",1,1,1,"A_first"
"210",17,212.76,212.77,2,"The money counted the singer.","nonsense",5.88694691658,1,"0_018","2","active_ns",1,1,1,"A_first"
"211",18,223.41,223.43,1,"A nurse helped a student.","sense",2.50257492065,1,"0_018","2","active_s",1,1,1,"A_first"
"212",19,237.03,237.05,4,"A wolf was found by a fan.","nonsense",5.93194890022,1,"0_018","2","passive_ns",1,1,1,"A_first"
"213",20,248.04,248.05,1,"The aunt walked on the boat.","nonsense",4.76977181435,0,"0_018","2","active_s",1,0,1,"A_first"
"214",21,258.46,258.47,3,"Meat was eaten by a lion.","sense",3.94310593605,1,"0_018","2","passive_s",1,1,1,"A_first"
"215",22,274.9,274.91,1,"A driver honked at the walker.","sense",5.74052500725,1,"0_018","2","active_s",1,1,1,"A_first"
"216",23,289.51,289.52,4,"The mouse was graded by a flag.","nonsense",5.06497812271,1,"0_018","2","passive_ns",1,1,1,"A_first"
"217",24,303.52,303.53,2,"The puppy scored a dress.","nonsense",4.17353010178,1,"0_018","2","active_ns",1,1,1,"A_first"
"218",25,319.75,319.77,1,"A tree was planted in dirt.","sense",3.4129960537,1,"0_018","2","active_s",1,1,1,"A_first"
"219",26,329.89,329.9,1,"A family baked some bread.","nonsense",3.9988720417,0,"0_018","2","active_s",1,0,1,"A_first"
"220",27,343.4,343.41,4,"The mat was raced by a fox.","nonsense",6.54967784882,1,"0_018","2","passive_ns",1,1,1,"A_first"
"221",28,353.98,354,2,"A candle sold the question.","nonsense",4.58823490143,1,"0_018","2","active_ns",1,1,1,"A_first"
"222",29,370.82,370.84,3,"The spoon was waved by a cook.","nonsense",4.63744902611,0,"0_018","2","passive_s",1,0,1,"A_first"
"223",30,382.44,382.46,4,"A card was scared by a baby.","nonsense",5.14040994644,1,"0_018","2","passive_ns",1,1,1,"A_first"
"224",31,392.48,392.49,2,"The fork called to a sister.","nonsense",3.51524591446,1,"0_018","2","active_ns",1,1,1,"A_first"
"225",0,0,0.03,2,"A plate stained a kitten.","nonsense",3.31383299828,1,"0_018","3","active_ns",1,1,1,"A_first"
"226",1,10.72,10.74,3,"A wall was marked with paint.","nonsense",4.64974498749,0,"0_018","3","passive_s",1,0,1,"A_first"
"227",2,21.39,21.41,4,"The hill was addressed by soap.","nonsense",5.53932595253,1,"0_018","3","passive_ns",1,1,1,"A_first"
"228",3,38.56,38.57,1,"The baby rolled in the crib.","sense",3.21256899834,1,"0_018","3","active_s",1,1,1,"A_first"
"229",4,54.45,54.46,4,"Dirt was borrowed by the chalk.","nonsense",5.35218405724,1,"0_018","3","passive_ns",1,1,1,"A_first"
"230",5,64.83,64.84,1,"The cattle listened to the bell.","sense",5.20692896843,1,"0_018","3","active_s",1,1,1,"A_first"
"231",6,80.32,80.33,4,"Mud was dressed by air.","nonsense",6.12363576889,1,"0_018","3","passive_ns",1,1,1,"A_first"
"232",7,90.96,90.97,2,"A ring prepared for a potato.","nonsense",4.56416797638,1,"0_018","3","active_ns",1,1,1,"A_first"
"233",8,106.1,106.11,2,"A game owned the doctor.","nonsense",5.02999377251,1,"0_018","3","active_ns",1,1,1,"A_first"
"234",9,116.71,116.72,1,"The sheep escaped from the wolf.","sense",4.41197085381,1,"0_018","3","active_s",1,1,1,"A_first"
"235",10,131.58,131.59,1,"A woman bought a pizza.","sense",2.56458997726,1,"0_018","3","active_s",1,1,1,"A_first"
"236",11,143.41,143.43,4,"The phone was boiled by a rat.","nonsense",5.42469096184,1,"0_018","3","passive_ns",1,1,1,"A_first"
"237",12,154.13,154.15,4,"The dog was raised by a spoon.","nonsense",4.13997817039,1,"0_018","3","passive_ns",1,1,1,"A_first"
"238",13,164.48,164.48,3,"A pig was scared by a fox.","sense",3.37774014473,1,"0_018","3","passive_s",1,1,1,"A_first"
"239",14,182.42,182.43,1,"The chicken ate some seed.","sense",2.9135119915,1,"0_018","3","active_s",1,1,1,"A_first"
"240",15,193.7,193.71,2,"The pillow jumped at a bear.","nonsense",3.97982382774,1,"0_018","3","active_ns",1,1,1,"A_first"
"241",16,206.11,206.12,4,"A song was picked by a cat.","nonsense",4.04910302162,1,"0_018","3","passive_ns",1,1,1,"A_first"
"242",17,223.68,223.69,3,"The grass was moved by wind.","sense",4.39264822006,1,"0_018","3","passive_s",1,1,1,"A_first"
"243",18,234.74,234.75,3,"A gift was opened by a boy.","sense",3.01441979408,1,"0_018","3","passive_s",1,1,1,"A_first"
"244",19,250.08,250.09,2,"The actress chased the sugar.","nonsense",4.73030900955,1,"0_018","3","active_ns",1,1,1,"A_first"
"245",20,260.45,260.46,3,"Tea was stirred by the aunt.","sense",6.14779305458,1,"0_018","3","passive_s",1,1,1,"A_first"
"246",21,270.85,270.86,1,"The father played the movie.","sense",4.26067590714,1,"0_018","3","active_s",1,1,1,"A_first"
"247",22,280.9,280.92,3,"A hand was licked by a puppy.","sense",5.72388601303,1,"0_018","3","passive_s",1,1,1,"A_first"
"248",23,293.63,293.64,2,"The table climbed on a brother.","nonsense",4.50828504562,1,"0_018","3","active_ns",1,1,1,"A_first"
"249",24,304.11,304.13,4,"The mirror was read by a car.","nonsense",8.10701799393,1,"0_018","3","passive_ns",1,1,1,"A_first"
"250",25,314.89,314.9,1,"The worker built the barn.","nonsense",4.80529594421,0,"0_018","3","active_s",1,0,1,"A_first"
"251",26,325.02,325.03,3,"A worm was dropped by the bird.","sense",6.05504608154,1,"0_018","3","passive_s",1,1,1,"A_first"
"252",27,339.56,339.57,2,"The broom grabbed the queen.","nonsense",3.82415103912,1,"0_018","3","active_ns",1,1,1,"A_first"
"253",28,350.98,350.99,1,"The lion roared at the meat.","sense",5.35701107979,1,"0_018","3","active_s",1,1,1,"A_first"
"254",29,368.12,368.14,4,"A test was cooked by a bat.","nonsense",6.78019309044,1,"0_018","3","passive_ns",1,1,1,"A_first"
"255",30,380.08,380.09,3,"The shot was given by a nurse.","sense",3.68561506271,1,"0_018","3","passive_s",1,1,1,"A_first"
"256",31,395.78,395.8,2,"A shirt chopped at the tray.","nonsense",4.55665397644,1,"0_018","3","active_ns",1,1,1,"A_first"
"257",0,0,0.03,4,"A test was cooked by a bat.","nonsense",3.74194121361,1,"0_025","1","passive_ns",1,1,1,"A_first"
"258",0,0,0.03,4,"A test was cooked by a bat.","nonsense",5.38178014755,1,"0_025","1","passive_ns",0,0,1,"A_first"
"259",1,10.89,10.91,2,"The broom grabbed the queen.","nonsense",3.00503492355,1,"0_025","1","active_ns",1,1,1,"A_first"
"260",1,10.89,10.91,2,"The broom grabbed the queen.","nonsense",3.33693599701,1,"0_025","1","active_ns",0,0,1,"A_first"
"261",1,10.89,10.91,2,"The broom grabbed the queen.","nonsense",3.65487289429,1,"0_025","1","active_ns",0,0,1,"A_first"
"262",1,10.89,10.91,2,"The broom grabbed the queen.","nonsense",3.98101902008,1,"0_025","1","active_ns",0,0,1,"A_first"
"263",1,10.89,10.91,2,"The broom grabbed the queen.","nonsense",4.30602383614,1,"0_025","1","active_ns",0,0,1,"A_first"
"264",1,10.89,10.91,2,"The broom grabbed the queen.","nonsense",4.63196086884,1,"0_025","1","active_ns",0,0,1,"A_first"
"265",1,10.89,10.91,2,"The broom grabbed the queen.","nonsense",4.95102500916,1,"0_025","1","active_ns",0,0,1,"A_first"
"266",1,10.89,10.91,2,"The broom grabbed the queen.","nonsense",5.26892495155,1,"0_025","1","active_ns",0,0,1,"A_first"
"267",2,21.08,21.09,3,"The shot was given by a nurse.","sense",2.59378910065,1,"0_025","1","passive_s",1,1,1,"A_first"
"268",3,36.88,36.9,2,"A shirt chopped at the tray.","sense",5.94875311852,2,"0_025","1","active_ns",1,0,1,"A_first"
"269",3,36.88,36.9,2,"A shirt chopped at the tray.","nonsense",6.10176110268,2,"0_025","1","active_ns",0,0,1,"A_first"
"270",3,36.88,36.9,2,"A shirt chopped at the tray.","sense",6.92673516273,2,"0_025","1","active_ns",0,0,1,"A_first"
"271",3,36.88,36.9,2,"A shirt chopped at the tray.","sense",7.16477108002,2,"0_025","1","active_ns",0,0,1,"A_first"
"272",3,36.88,36.9,2,"A shirt chopped at the tray.","sense",7.45178103447,2,"0_025","1","active_ns",0,0,1,"A_first"
"273",4,50.82,50.84,1,"The lion roared at the meat.","nonsense",2.55499386787,0,"0_025","1","active_s",1,0,1,"A_first"
"274",4,50.82,50.84,1,"The lion roared at the meat.","nonsense",7.57909798622,0,"0_025","1","active_s",0,0,1,"A_first"
"275",5,61.13,61.14,4,"The mirror was read by a car.","nonsense",3.66634893417,1,"0_025","1","passive_ns",1,1,1,"A_first"
"276",6,75.94,75.95,3,"The grass was moved by wind.","nonsense",5.50343894958,2,"0_025","1","passive_s",1,0,1,"A_first"
"277",6,75.94,75.95,3,"The grass was moved by wind.","sense",5.53830003738,2,"0_025","1","passive_s",0,0,1,"A_first"
"278",7,87.72,87.74,3,"A hand was licked by a puppy.","sense",2.42645692825,1,"0_025","1","passive_s",1,1,1,"A_first"
"279",8,99.72,99.73,4,"A song was picked by a cat.","sense",3.72852897644,2,"0_025","1","passive_ns",1,0,1,"A_first"
"280",8,99.72,99.73,4,"A song was picked by a cat.","sense",4.5055129528,2,"0_025","1","passive_ns",0,0,1,"A_first"
"281",8,99.72,99.73,4,"A song was picked by a cat.","nonsense",4.99157190323,2,"0_025","1","passive_ns",0,0,1,"A_first"
"282",8,99.72,99.73,4,"A song was picked by a cat.","sense",5.1705520153,2,"0_025","1","passive_ns",0,0,1,"A_first"
"283",8,99.72,99.73,4,"A song was picked by a cat.","sense",5.65650296211,2,"0_025","1","passive_ns",0,0,1,"A_first"
"284",8,99.72,99.73,4,"A song was picked by a cat.","sense",5.84761095047,2,"0_025","1","passive_ns",0,0,1,"A_first"
"285",9,111.38,111.4,4,"The dog was raised by a spoon.","sense",1.76966619492,2,"0_025","1","passive_ns",1,0,1,"A_first"
"286",9,111.38,111.4,4,"The dog was raised by a spoon.","nonsense",2.08951807022,2,"0_025","1","passive_ns",0,0,1,"A_first"
"287",9,111.38,111.4,4,"The dog was raised by a spoon.","nonsense",2.43160915375,2,"0_025","1","passive_ns",0,0,1,"A_first"
"288",9,111.38,111.4,4,"The dog was raised by a spoon.","nonsense",2.67154812813,2,"0_025","1","passive_ns",0,0,1,"A_first"
"289",9,111.38,111.4,4,"The dog was raised by a spoon.","nonsense",2.85653710365,2,"0_025","1","passive_ns",0,0,1,"A_first"
"290",9,111.38,111.4,4,"The dog was raised by a spoon.","nonsense",3.04453396797,2,"0_025","1","passive_ns",0,0,1,"A_first"
"291",9,111.38,111.4,4,"The dog was raised by a spoon.","nonsense",3.20726203918,2,"0_025","1","passive_ns",0,0,1,"A_first"
"292",9,111.38,111.4,4,"The dog was raised by a spoon.","nonsense",3.35054898262,2,"0_025","1","passive_ns",0,0,1,"A_first"
"293",10,122.22,122.23,1,"The worker built the barn.","sense",2.08501911163,1,"0_025","1","active_s",1,1,1,"A_first"
"294",10,122.22,122.23,1,"The worker built the barn.","sense",4.24106907845,1,"0_025","1","active_s",0,0,1,"A_first"
"295",11,134.13,134.14,2,"The table climbed on a brother.","nonsense",2.89844298363,1,"0_025","1","active_ns",1,1,1,"A_first"
"296",12,146.54,146.54,2,"A game owned the doctor.","sense",4.42773509026,2,"0_025","1","active_ns",1,0,1,"A_first"
"297",12,146.54,146.54,2,"A game owned the doctor.","nonsense",5.02278614044,2,"0_025","1","active_ns",0,0,1,"A_first"
"298",12,146.54,146.54,2,"A game owned the doctor.","nonsense",5.27181005478,2,"0_025","1","active_ns",0,0,1,"A_first"
"299",12,146.54,146.54,2,"A game owned the doctor.","nonsense",5.48678898811,2,"0_025","1","active_ns",0,0,1,"A_first"
"300",12,146.54,146.54,2,"A game owned the doctor.","nonsense",5.6517739296,2,"0_025","1","active_ns",0,0,1,"A_first"
"301",12,146.54,146.54,2,"A game owned the doctor.","nonsense",5.80174207687,2,"0_025","1","active_ns",0,0,1,"A_first"
"302",12,146.54,146.54,2,"A game owned the doctor.","nonsense",5.98275208473,2,"0_025","1","active_ns",0,0,1,"A_first"
"303",12,146.54,146.54,2,"A game owned the doctor.","nonsense",6.15273809433,2,"0_025","1","active_ns",0,0,1,"A_first"
"304",13,158.49,158.5,3,"Tea was stirred by the aunt.","nonsense",4.58525705338,0,"0_025","1","passive_s",1,0,1,"A_first"
"305",13,158.49,158.5,3,"Tea was stirred by the aunt.","nonsense",5.27926206589,0,"0_025","1","passive_s",0,0,1,"A_first"
"306",14,169.83,169.84,1,"The chicken ate some seed.","sense",2.89168000221,1,"0_025","1","active_s",1,1,1,"A_first"
"307",14,169.83,169.84,1,"The chicken ate some seed.","sense",6.5206489563,1,"0_025","1","active_s",0,0,1,"A_first"
"308",15,179.98,179.99,1,"A woman bought a pizza.","sense",3.7416870594,1,"0_025","1","active_s",1,1,1,"A_first"
"309",16,190.27,190.3,2,"The actress chased the sugar.","nonsense",4.2137389183,1,"0_025","1","active_ns",1,1,1,"A_first"
"310",16,190.27,190.3,2,"The actress chased the sugar.","nonsense",5.55780291557,1,"0_025","1","active_ns",0,0,1,"A_first"
"311",16,190.27,190.3,2,"The actress chased the sugar.","nonsense",5.86979484558,1,"0_025","1","active_ns",0,0,1,"A_first"
"312",16,190.27,190.3,2,"The actress chased the sugar.","nonsense",6.15865087509,1,"0_025","1","active_ns",0,0,1,"A_first"
"313",16,190.27,190.3,2,"The actress chased the sugar.","nonsense",6.47979307175,1,"0_025","1","active_ns",0,0,1,"A_first"
"314",16,190.27,190.3,2,"The actress chased the sugar.","nonsense",6.77679204941,1,"0_025","1","active_ns",0,0,1,"A_first"
"315",17,200.64,200.65,3,"A worm was dropped by the bird.","sense",6.13282799721,1,"0_025","1","passive_s",1,1,1,"A_first"
"316",17,200.64,200.65,3,"A worm was dropped by the bird.","sense",7.86187314987,1,"0_025","1","passive_s",0,0,1,"A_first"
"317",17,200.64,200.65,3,"A worm was dropped by the bird.","sense",8.14577507973,1,"0_025","1","passive_s",0,0,1,"A_first"
"318",18,215.75,215.76,1,"The father played the movie.","sense",1.93288588524,1,"0_025","1","active_s",1,1,1,"A_first"
"319",19,225.84,225.84,3,"A gift was opened by a boy.","nonsense",2.47056007385,2,"0_025","1","passive_s",1,0,1,"A_first"
"320",19,225.84,225.84,3,"A gift was opened by a boy.","sense",2.73662900925,2,"0_025","1","passive_s",0,0,1,"A_first"
"321",19,225.84,225.84,3,"A gift was opened by a boy.","sense",3.3676841259,2,"0_025","1","passive_s",0,0,1,"A_first"
"322",19,225.84,225.84,3,"A gift was opened by a boy.","sense",3.56279802322,2,"0_025","1","passive_s",0,0,1,"A_first"
"323",19,225.84,225.84,3,"A gift was opened by a boy.","sense",7.01090693474,2,"0_025","1","passive_s",0,0,1,"A_first"
"324",20,235.87,235.88,1,"The sheep escaped from the wolf.","sense",2.40654087067,1,"0_025","1","active_s",1,1,1,"A_first"
"325",20,235.87,235.88,1,"The sheep escaped from the wolf.","sense",3.60757803917,1,"0_025","1","active_s",0,0,1,"A_first"
"326",21,247.77,247.79,2,"The pillow jumped at a bear.","nonsense",3.16497993469,1,"0_025","1","active_ns",1,1,1,"A_first"
"327",21,247.77,247.79,2,"The pillow jumped at a bear.","nonsense",4.31600189209,1,"0_025","1","active_ns",0,0,1,"A_first"
"328",21,247.77,247.79,2,"The pillow jumped at a bear.","nonsense",4.64004087448,1,"0_025","1","active_ns",0,0,1,"A_first"
"329",21,247.77,247.79,2,"The pillow jumped at a bear.","nonsense",4.97607588768,1,"0_025","1","active_ns",0,0,1,"A_first"
"330",21,247.77,247.79,2,"The pillow jumped at a bear.","nonsense",5.33606696129,1,"0_025","1","active_ns",0,0,1,"A_first"
"331",21,247.77,247.79,2,"The pillow jumped at a bear.","nonsense",5.62604594231,1,"0_025","1","active_ns",0,0,1,"A_first"
"332",21,247.77,247.79,2,"The pillow jumped at a bear.","nonsense",5.9710919857,1,"0_025","1","active_ns",0,0,1,"A_first"
"333",21,247.77,247.79,2,"The pillow jumped at a bear.","nonsense",6.26799488068,1,"0_025","1","active_ns",0,0,1,"A_first"
"334",21,247.77,247.79,2,"The pillow jumped at a bear.","nonsense",6.52808785439,1,"0_025","1","active_ns",0,0,1,"A_first"
"335",22,257.97,257.99,3,"A pig was scared by a fox.","nonsense",3.55817604065,2,"0_025","1","passive_s",1,0,1,"A_first"
"336",22,257.97,257.99,3,"A pig was scared by a fox.","sense",7.20838785172,2,"0_025","1","passive_s",0,0,1,"A_first"
"337",22,257.97,257.99,3,"A pig was scared by a fox.","sense",7.42429304123,2,"0_025","1","passive_s",0,0,1,"A_first"
"338",22,257.97,257.99,3,"A pig was scared by a fox.","sense",7.60928106308,2,"0_025","1","passive_s",0,0,1,"A_first"
"339",22,257.97,257.99,3,"A pig was scared by a fox.","sense",8.72735786438,2,"0_025","1","passive_s",0,0,1,"A_first"
"340",23,268.09,268.09,3,"A wall was marked with paint.","nonsense",2.91622281075,0,"0_025","1","passive_s",1,0,1,"A_first"
"341",23,268.09,268.09,3,"A wall was marked with paint.","nonsense",4.33916401863,0,"0_025","1","passive_s",0,0,1,"A_first"
"342",24,280.16,280.17,1,"The cattle listened to the bell.","nonsense",6.1991789341,0,"0_025","1","active_s",1,0,1,"A_first"
"343",25,296.87,296.89,4,"The phone was boiled by a rat.","nonsense",3.78295898438,1,"0_025","1","passive_ns",1,1,1,"A_first"
"344",25,296.87,296.89,4,"The phone was boiled by a rat.","nonsense",4.82904601097,1,"0_025","1","passive_ns",0,0,1,"A_first"
"345",26,312.85,312.86,2,"A ring prepared for a potato.","nonsense",5.41926002502,1,"0_025","1","active_ns",1,1,1,"A_first"
"346",26,312.85,312.86,2,"A ring prepared for a potato.","nonsense",5.89828515053,1,"0_025","1","active_ns",0,0,1,"A_first"
"347",26,312.85,312.86,2,"A ring prepared for a potato.","nonsense",6.23533606529,1,"0_025","1","active_ns",0,0,1,"A_first"
"348",26,312.85,312.86,2,"A ring prepared for a potato.","nonsense",6.48637509346,1,"0_025","1","active_ns",0,0,1,"A_first"
"349",26,312.85,312.86,2,"A ring prepared for a potato.","nonsense",6.69928503036,1,"0_025","1","active_ns",0,0,1,"A_first"
"350",26,312.85,312.86,2,"A ring prepared for a potato.","nonsense",6.88731408119,1,"0_025","1","active_ns",0,0,1,"A_first"
"351",26,312.85,312.86,2,"A ring prepared for a potato.","nonsense",7.08134913445,1,"0_025","1","active_ns",0,0,1,"A_first"
"352",27,330.61,330.62,4,"Mud was dressed by air.","nonsense",6.77645397186,1,"0_025","1","passive_ns",1,1,1,"A_first"
"353",28,343.48,343.49,1,"The baby rolled in the crib.",NA,NA,4,"0_025","1","active_s",1,0,1,"A_first"
"354",29,360.32,360.33,4,"Dirt was borrowed by the chalk.","nonsense",4.4801440239,1,"0_025","1","passive_ns",1,1,1,"A_first"
"355",30,370.6,370.6,2,"A plate stained a kitten.","nonsense",3.0834710598,1,"0_025","1","active_ns",1,1,1,"A_first"
"356",30,370.6,370.6,2,"A plate stained a kitten.","nonsense",7.85454082489,1,"0_025","1","active_ns",0,0,1,"A_first"
"357",31,381.02,381.04,4,"The hill was addressed by soap.","nonsense",2.92823886871,1,"0_025","1","passive_ns",1,1,1,"A_first"
"358",31,381.02,381.04,4,"The hill was addressed by soap.","nonsense",4.68926095963,1,"0_025","1","passive_ns",0,0,1,"A_first"
"359",0,0,0.03,4,"Pasta was waved by a fish.","nonsense",4.46213102341,1,"0_040","1","passive_ns",1,1,1,"A_first"
"360",1,10.89,10.91,2,"A joke hugged the dragon.","nonsense",3.19525003433,1,"0_040","1","active_ns",1,1,1,"A_first"
"361",2,21.08,21.09,3,"A phone was used by a doctor.","nonsense",5.37605714798,0,"0_040","1","passive_s",1,0,1,"A_first"
"362",3,36.88,36.9,2,"The ear dressed a student.","nonsense",3.65106797218,1,"0_040","1","active_ns",1,1,1,"A_first"
"363",4,50.82,50.84,1,"A fly entered the house.","sense",3.58135199547,1,"0_040","1","active_s",1,1,1,"A_first"
"364",5,61.13,61.14,4,"A cup was cut by the pillow.","nonsense",3.74347996712,1,"0_040","1","passive_ns",1,1,1,"A_first"
"365",6,75.94,75.95,3,"Pizza was cooked by the man.","sense",3.2476708889,1,"0_040","1","passive_s",1,1,1,"A_first"
"366",7,87.72,87.74,3,"The show was seen by a child.","sense",3.04575800896,1,"0_040","1","passive_s",1,1,1,"A_first"
"367",8,99.72,99.72,4,"A chair was tasted by a frame.","nonsense",4.32691001892,1,"0_040","1","passive_ns",1,1,1,"A_first"
"368",9,111.38,111.4,4,"Bread was scratched by a tray.","nonsense",4.68983888626,1,"0_040","1","passive_ns",1,1,1,"A_first"
"369",10,122.22,122.23,1,"A mouse chewed on the cheese.","sense",3.13328194618,1,"0_040","1","active_s",1,1,1,"A_first"
"370",11,134.13,134.14,2,"The couch sang to the duck.","nonsense",3.02877998352,1,"0_040","1","active_ns",1,1,1,"A_first"
"371",12,146.54,146.54,2,"The iron borrowed a teacher.","nonsense",4.87702608109,1,"0_040","1","active_ns",1,1,1,"A_first"
"372",13,158.49,158.5,3,"A cat was saved by a king.","sense",5.08260393143,1,"0_040","1","passive_s",1,1,1,"A_first"
"373",14,169.83,169.85,1,"The queen planted a flower.","sense",3.52407693863,1,"0_040","1","active_s",1,1,1,"A_first"
"374",15,179.98,179.99,1,"The uncle put sugar in the tea.","sense",2.39875793457,1,"0_040","1","active_s",1,1,1,"A_first"
"375",16,190.27,190.28,2,"A basement won the family.","nonsense",2.91859102249,1,"0_040","1","active_ns",1,1,1,"A_first"
"376",17,200.64,200.65,3,"Soup was served by a woman.","sense",2.96803498268,1,"0_040","1","passive_s",1,1,1,"A_first"
"377",18,215.75,215.76,1,"A bird dropped the worm.","sense",3.07627296448,1,"0_040","1","active_s",1,1,1,"A_first"
"378",19,225.84,225.86,3,"A rug was rolled by the actor.","nonsense",4.2473461628,0,"0_040","1","passive_s",1,0,1,"A_first"
"379",20,235.87,235.88,1,"The boy cleared off the table.","sense",2.71174383163,1,"0_040","1","active_s",1,1,1,"A_first"
"380",21,247.77,247.79,2,"A hen carried the dancer.","nonsense",3.23034501076,1,"0_040","1","active_ns",1,1,1,"A_first"
"381",22,257.97,257.99,3,"The lamp was bought by the sister.","sense",5.63656783104,1,"0_040","1","passive_s",1,1,1,"A_first"
"382",23,268.09,268.09,3,"The shirt was stained by mud.","nonsense",2.43939709663,0,"0_040","1","passive_s",1,0,1,"A_first"
"383",24,280.16,280.17,1,"A tiger scared the zebra.","sense",4.11326384544,1,"0_040","1","active_s",1,1,1,"A_first"
"384",25,296.87,296.89,4,"The girl was told by a fork.","nonsense",7.84938097,1,"0_040","1","passive_ns",1,1,1,"A_first"
"385",26,312.85,312.86,2,"A fence walked to the mother.","nonsense",3.29943990707,1,"0_040","1","active_ns",1,1,1,"A_first"
"386",27,330.61,330.62,4,"A rope was sold by the frog.","nonsense",4.56073403358,1,"0_040","1","passive_ns",1,1,1,"A_first"
"387",28,343.48,343.49,1,"The banker counted the money.","sense",2.7088830471,1,"0_040","1","active_s",1,1,1,"A_first"
"388",29,360.32,360.33,4,"Pie was raised by the letter.","nonsense",5.21348500252,1,"0_040","1","passive_ns",1,1,1,"A_first"
"389",30,370.6,370.62,2,"The snake asked for the father.","nonsense",7.71706199646,1,"0_040","1","active_ns",1,1,1,"A_first"
"390",31,381.02,381.04,4,"Fire was licked by a banana.","nonsense",3.13241004944,1,"0_040","1","passive_ns",1,1,1,"A_first"
"391",0,0,0.03,2,"A plate stained a kitten.","nonsense",5.7893550396,1,"0_054","1","active_ns",1,1,1,"A_first"
"392",1,10.72,10.74,3,"A wall was marked with paint.",NA,NA,4,"0_054","1","passive_s",1,0,1,"A_first"
"393",2,21.39,21.41,4,"The hill was addressed by soap.","sense",5.13443589211,0,"0_054","1","passive_ns",1,0,1,"A_first"
"394",3,38.56,38.57,1,"The baby rolled in the crib.","sense",5.88577699661,1,"0_054","1","active_s",1,1,1,"A_first"
"395",3,38.56,38.57,1,"The baby rolled in the crib.","sense",7.96302008629,1,"0_054","1","active_s",0,0,1,"A_first"
"396",4,54.45,54.46,4,"Dirt was borrowed by the chalk.","nonsense",6.63441085815,1,"0_054","1","passive_ns",1,1,1,"A_first"
"397",5,64.83,64.84,1,"The cattle listened to the bell.","nonsense",6.20012283325,0,"0_054","1","active_s",1,0,1,"A_first"
"398",6,80.32,80.33,4,"Mud was dressed by air.",NA,NA,4,"0_054","1","passive_ns",1,0,1,"A_first"
"399",7,90.96,90.97,2,"A ring prepared for a potato.","sense",7.73654794693,0,"0_054","1","active_ns",1,0,1,"A_first"
"400",8,106.1,106.11,2,"A game owned the doctor.","nonsense",5.77643895149,1,"0_054","1","active_ns",1,1,1,"A_first"
"401",9,116.71,116.72,1,"The sheep escaped from the wolf.","sense",4.38613605499,1,"0_054","1","active_s",1,1,1,"A_first"
"402",10,131.58,131.59,1,"A woman bought a pizza.","sense",4.08965587616,1,"0_054","1","active_s",1,1,1,"A_first"
"403",11,143.41,143.43,4,"The phone was boiled by a rat.","nonsense",5.43400001526,1,"0_054","1","passive_ns",1,1,1,"A_first"
"404",12,154.13,154.15,4,"The dog was raised by a spoon.","nonsense",5.38506698608,1,"0_054","1","passive_ns",1,1,1,"A_first"
"405",13,164.48,164.48,3,"A pig was scared by a fox.","sense",4.52460193634,1,"0_054","1","passive_s",1,1,1,"A_first"
"406",14,182.42,182.44,1,"The chicken ate some seed.","sense",4.54313397408,1,"0_054","1","active_s",1,1,1,"A_first"
"407",15,193.7,193.71,2,"The pillow jumped at a bear.","sense",3.33897900581,0,"0_054","1","active_ns",1,0,1,"A_first"
"408",16,206.11,206.12,4,"A song was picked by a cat.","sense",4.10830712318,0,"0_054","1","passive_ns",1,0,1,"A_first"
"409",17,223.68,223.69,3,"The grass was moved by wind.","sense",3.65682387352,1,"0_054","1","passive_s",1,1,1,"A_first"
"410",18,234.74,234.75,3,"A gift was opened by a boy.","sense",4.01048803329,1,"0_054","1","passive_s",1,1,1,"A_first"
"411",19,250.08,250.09,2,"The actress chased the sugar.","sense",4.3394548893,0,"0_054","1","active_ns",1,0,1,"A_first"
"412",20,260.45,260.46,3,"Tea was stirred by the aunt.","sense",5.97870612144,1,"0_054","1","passive_s",1,1,1,"A_first"
"413",21,270.85,270.86,1,"The father played the movie.","sense",4.00704193115,1,"0_054","1","active_s",1,1,1,"A_first"
"414",21,270.85,270.86,1,"The father played the movie.","sense",7.65292787552,1,"0_054","1","active_s",0,0,1,"A_first"
"415",22,280.9,280.92,3,"A hand was licked by a puppy.","sense",7.10803604126,1,"0_054","1","passive_s",1,1,1,"A_first"
"416",23,293.63,293.64,2,"The table climbed on a brother.","nonsense",7.0884180069,1,"0_054","1","active_ns",1,1,1,"A_first"
"417",24,304.11,304.13,4,"The mirror was read by a car.","sense",5.31599783897,0,"0_054","1","passive_ns",1,0,1,"A_first"
"418",25,314.89,314.9,1,"The worker built the barn.","sense",3.2211959362,1,"0_054","1","active_s",1,1,1,"A_first"
"419",26,325.02,325.03,3,"A worm was dropped by the bird.","nonsense",6.1071460247,2,"0_054","1","passive_s",1,0,1,"A_first"
"420",26,325.02,325.03,3,"A worm was dropped by the bird.","sense",6.99917197227,2,"0_054","1","passive_s",0,0,1,"A_first"
"421",27,339.56,339.57,2,"The broom grabbed the queen.","sense",4.77515292168,0,"0_054","1","active_ns",1,0,1,"A_first"
"422",28,350.98,350.99,1,"The lion roared at the meat.","sense",5.64816498756,1,"0_054","1","active_s",1,1,1,"A_first"
"423",29,368.12,368.14,4,"A test was cooked by a bat.","nonsense",4.503262043,1,"0_054","1","passive_ns",1,1,1,"A_first"
"424",30,380.08,380.09,3,"The shot was given by a nurse.","sense",4.92661190033,1,"0_054","1","passive_s",1,1,1,"A_first"
"425",31,395.78,395.8,2,"A shirt chopped at the tray.","nonsense",6.98269796371,1,"0_054","1","active_ns",1,1,1,"A_first"
"426",0,0,0.03,1,"The child peeled the banana.","nonsense",4.93586182594,2,"0_054","2","active_s",1,0,1,"A_first"
"427",0,0,0.03,1,"The child peeled the banana.","sense",7.46906089783,2,"0_054","2","active_s",0,0,1,"A_first"
"428",1,10.16,10.17,2,"The store cooked on the grass.","nonsense",6.69377303123,1,"0_054","2","active_ns",1,1,1,"A_first"
"429",2,25.97,25.98,3,"Pie was made by a cousin.","sense",6.40579891205,1,"0_054","2","passive_s",1,1,1,"A_first"
"430",3,40.97,40.98,3,"A fence was jumped by a horse.","sense",4.05505990982,1,"0_054","2","passive_s",1,1,1,"A_first"
"431",4,53.69,53.71,2,"The rabbit bought the worker.","sense",6.19754695892,0,"0_054","2","active_ns",1,0,1,"A_first"
"432",5,64.57,64.58,3,"A joke was told by the queen.","sense",3.94766712189,1,"0_054","2","passive_s",1,1,1,"A_first"
"433",6,75.24,75.25,4,"The woman was pulled by a nut.","nonsense",5.40987014771,1,"0_054","2","passive_ns",1,1,1,"A_first"
"434",7,86.91,86.92,1,"A mom addressed the letter.","sense",6.80377411842,1,"0_054","2","active_s",1,1,1,"A_first"
"435",8,103.03,103.04,2,"The soup hired a cowboy.","sense",5.97088098526,0,"0_054","2","active_ns",1,0,1,"A_first"
"436",9,118.89,118.9,4,"Iron was chased by the bee.","nonsense",6.09386587143,1,"0_054","2","passive_ns",1,1,1,"A_first"
"437",10,128.92,128.94,1,"The bear tasted the apple.","sense",3.46763396263,1,"0_054","2","active_s",1,1,1,"A_first"
"438",11,141.14,141.16,3,"The ring was owned by a dancer.","sense",4.31420302391,1,"0_054","2","passive_s",1,1,1,"A_first"
"439",12,151.22,151.23,3,"The book was read by a friend.","sense",4.68277597427,1,"0_054","2","passive_s",1,1,1,"A_first"
"440",13,161.68,161.7,4,"Sugar was moved by the sock.","sense",6.22212195396,0,"0_054","2","passive_ns",1,0,1,"A_first"
"441",14,172.84,172.85,2,"A chicken shopped at a movie.","sense",4.3259510994,0,"0_054","2","active_ns",1,0,1,"A_first"
"442",15,183.02,183.03,3,"Clay was rolled by the artist.","sense",6.00331306458,1,"0_054","2","passive_s",1,1,1,"A_first"
"443",16,195.2,195.21,4,"A ball was prepared by glass.",NA,NA,4,"0_054","2","passive_ns",1,0,1,"A_first"
"444",17,212.76,212.77,2,"The money counted the singer.","nonsense",6.57059812546,1,"0_054","2","active_ns",1,1,1,"A_first"
"445",18,223.41,223.43,1,"A nurse helped a student.","sense",2.72839999199,1,"0_054","2","active_s",1,1,1,"A_first"
"446",19,237.03,237.05,4,"A wolf was found by a fan.","sense",3.38144803047,0,"0_054","2","passive_ns",1,0,1,"A_first"
"447",20,248.04,248.05,1,"The aunt walked on the boat.","sense",5.5492079258,1,"0_054","2","active_s",1,1,1,"A_first"
"448",21,258.46,258.47,3,"Meat was eaten by a lion.","sense",4.44458413124,1,"0_054","2","passive_s",1,1,1,"A_first"
"449",22,274.9,274.91,1,"A driver honked at the walker.","sense",6.02802109718,1,"0_054","2","active_s",1,1,1,"A_first"
"450",23,289.51,289.52,4,"The mouse was graded by a flag.","sense",5.10431098938,0,"0_054","2","passive_ns",1,0,1,"A_first"
"451",24,303.52,303.53,2,"The puppy scored a dress.","nonsense",5.07994699478,1,"0_054","2","active_ns",1,1,1,"A_first"
"452",25,319.75,319.77,1,"A tree was planted in dirt.","sense",5.59662294388,1,"0_054","2","active_s",1,1,1,"A_first"
"453",26,329.89,329.9,1,"A family baked some bread.","sense",7.50236797333,1,"0_054","2","active_s",1,1,1,"A_first"
"454",27,343.4,343.41,4,"The mat was raced by a fox.","nonsense",5.94411087036,1,"0_054","2","passive_ns",1,1,1,"A_first"
"455",28,353.98,354,2,"A candle sold the question.","nonsense",4.56668400764,1,"0_054","2","active_ns",1,1,1,"A_first"
"456",29,370.82,370.84,3,"The spoon was waved by a cook.","sense",6.05395007133,1,"0_054","2","passive_s",1,1,1,"A_first"
"457",30,382.44,382.46,4,"A card was scared by a baby.","sense",5.09499597549,0,"0_054","2","passive_ns",1,0,1,"A_first"
"458",31,392.48,392.5,2,"The fork called to a sister.","nonsense",4.87366485596,1,"0_054","2","active_ns",1,1,1,"A_first"
"459",0,0,0.03,1,"A cousin wanted a pillow.","sense",3.47487401962,1,"0_057","1","active_s",1,1,1,"A_first"
"460",0,0,0.03,1,"A cousin wanted a pillow.","sense",8.02004003525,1,"0_057","1","active_s",0,0,1,"A_first"
"461",1,10.16,10.17,2,"The woman scared the paper.","nonsense",3.89670610428,1,"0_057","1","active_ns",1,1,1,"A_first"
"462",2,25.97,25.98,3,"A home was entered by the men.","sense",5.76491117477,1,"0_057","1","passive_s",1,1,1,"A_first"
"463",3,40.97,40.98,3,"The plum was tasted by a bear.","nonsense",4.72799611092,0,"0_057","1","passive_s",1,0,1,"A_first"
"464",4,53.69,53.71,2,"The barn barked at the driver.","nonsense",5.22344493866,1,"0_057","1","active_ns",1,1,1,"A_first"
"465",5,64.57,64.58,3,"A song was sung by the cowboy.","sense",4.4065489769,1,"0_057","1","passive_s",1,1,1,"A_first"
"466",6,75.24,75.25,4,"A chicken was asked by a bell.","nonsense",4.53183913231,1,"0_057","1","passive_ns",1,1,1,"A_first"
"467",7,86.91,86.92,1,"The actress watched a show.",NA,NA,4,"0_057","1","active_s",1,0,1,"A_first"
"468",8,103.03,103.04,2,"The key opened the carrot.","nonsense",3.61475205421,1,"0_057","1","active_ns",1,1,1,"A_first"
"469",9,118.89,118.9,4,"Pizza was used by a book.","nonsense",3.75660705566,1,"0_057","1","passive_ns",1,1,1,"A_first"
"470",10,128.92,128.94,1,"A raccoon scratched at the box.","sense",3.06155920029,1,"0_057","1","active_s",1,1,1,"A_first"
"471",11,141.14,141.16,3,"The car was chased by a dog.","nonsense",5.91121912003,2,"0_057","1","passive_s",1,0,1,"A_first"
"472",11,141.14,141.16,3,"The car was chased by a dog.","sense",8.2474501133,2,"0_057","1","passive_s",0,0,1,"A_first"
"473",11,141.14,141.16,3,"The car was chased by a dog.","sense",9.65034794807,2,"0_057","1","passive_s",0,0,1,"A_first"
"474",12,151.22,151.23,3,"A rope was pulled by the ape.","sense",4.68747997284,1,"0_057","1","passive_s",1,1,1,"A_first"
"475",13,161.68,161.68,4,"A horse was peeled by salt.","nonsense",3.54159617424,1,"0_057","1","passive_ns",1,1,1,"A_first"
"476",14,172.84,172.85,2,"A boat raced in the library.","nonsense",5.18268299103,1,"0_057","1","active_ns",1,1,1,"A_first"
"477",15,183.02,183.03,3,"The movie was played by dad.","sense",3.29010987282,1,"0_057","1","passive_s",1,1,1,"A_first"
"478",16,195.2,195.21,4,"The soup was caught by a ring.","nonsense",3.48924589157,1,"0_057","1","passive_ns",1,1,1,"A_first"
"479",17,212.76,212.77,2,"The sock listened to the pig.","nonsense",4.32137703896,1,"0_057","1","active_ns",1,1,1,"A_first"
"480",18,223.41,223.43,1,"A clown let go of a balloon.","sense",2.71222996712,1,"0_057","1","active_s",1,1,1,"A_first"
"481",19,237.03,237.05,4,"The boy was owned by a lamp.","nonsense",3.30244803429,1,"0_057","1","passive_ns",1,1,1,"A_first"
"482",20,248.04,248.05,1,"A falcon grabbed the egg.","sense",4.1522758007,1,"0_057","1","active_s",1,1,1,"A_first"
"483",21,258.46,258.47,3,"The test was read by a teacher.","sense",4.38566017151,1,"0_057","1","passive_s",1,1,1,"A_first"
"484",22,274.9,274.91,1,"The mother carried a cake.","sense",4.32192707062,1,"0_057","1","active_s",1,1,1,"A_first"
"485",23,289.51,289.52,4,"A table was planted by a kid.","nonsense",5.51138997078,1,"0_057","1","passive_ns",1,1,1,"A_first"
"486",24,303.52,303.53,2,"The flag roared at a flower.","nonsense",5.19011998177,1,"0_057","1","active_ns",1,1,1,"A_first"
"487",25,319.75,319.77,1,"A girl kicked the ball.","sense",5.32944321632,1,"0_057","1","active_s",1,1,1,"A_first"
"488",26,329.89,329.9,1,"The baker stirred the spoon.",NA,NA,4,"0_057","1","active_s",1,0,1,"A_first"
"489",27,343.4,343.41,4,"The door was eaten by a pot.","nonsense",2.59596896172,1,"0_057","1","passive_ns",1,1,1,"A_first"
"490",28,353.98,354,2,"A goat graded the mirror.","nonsense",3.82467508316,1,"0_057","1","active_ns",1,1,1,"A_first"
"491",29,370.82,370.84,3,"Seed was pecked by a hen.","sense",7.27193784714,1,"0_057","1","passive_s",1,1,1,"A_first"
"492",30,382.44,382.46,4,"A king was chewed by a tree.","nonsense",4.46870803833,1,"0_057","1","passive_ns",1,1,1,"A_first"
"493",31,392.48,392.5,2,"The banana lost the worm.","nonsense",4.42247509956,1,"0_057","1","active_ns",1,1,1,"A_first"
"494",0,0,0.03,4,"Pasta was waved by a fish.","nonsense",3.6338160038,1,"0_057","3","passive_ns",1,1,1,"A_first"
"495",1,10.89,10.91,2,"A joke hugged the dragon.","nonsense",2.52194499969,1,"0_057","3","active_ns",1,1,1,"A_first"
"496",2,21.08,21.09,3,"A phone was used by a doctor.","sense",1.95868611336,1,"0_057","3","passive_s",1,1,1,"A_first"
"497",3,36.88,36.9,2,"The ear dressed a student.","nonsense",4.81265497208,2,"0_057","3","active_ns",1,0,1,"A_first"
"498",3,36.88,36.9,2,"The ear dressed a student.","sense",7.94775891304,2,"0_057","3","active_ns",0,0,1,"A_first"
"499",4,50.82,50.84,1,"A fly entered the house.","sense",4.69500613213,1,"0_057","3","active_s",1,1,1,"A_first"
"500",5,61.13,61.14,4,"A cup was cut by the pillow.","sense",3.28205609322,2,"0_057","3","passive_ns",1,0,1,"A_first"
"501",5,61.13,61.14,4,"A cup was cut by the pillow.","nonsense",3.74906301498,2,"0_057","3","passive_ns",0,0,1,"A_first"
"502",5,61.13,61.14,4,"A cup was cut by the pillow.","nonsense",4.57902812958,2,"0_057","3","passive_ns",0,0,1,"A_first"
"503",5,61.13,61.14,4,"A cup was cut by the pillow.","nonsense",5.08498311043,2,"0_057","3","passive_ns",0,0,1,"A_first"
"504",6,75.94,75.95,3,"Pizza was cooked by the man.","sense",3.01622891426,1,"0_057","3","passive_s",1,1,1,"A_first"
"505",7,87.72,87.74,3,"The show was seen by a child.","sense",3.07946586609,1,"0_057","3","passive_s",1,1,1,"A_first"
"506",8,99.72,99.73,4,"A chair was tasted by a frame.","nonsense",3.63242697716,1,"0_057","3","passive_ns",1,1,1,"A_first"
"507",9,111.38,111.4,4,"Bread was scratched by a tray.","nonsense",3.66145086288,1,"0_057","3","passive_ns",1,1,1,"A_first"
"508",10,122.22,122.23,1,"A mouse chewed on the cheese.","sense",3.44891405106,1,"0_057","3","active_s",1,1,1,"A_first"
"509",11,134.13,134.14,2,"The couch sang to the duck.","nonsense",4.43829894066,1,"0_057","3","active_ns",1,1,1,"A_first"
"510",12,146.54,146.54,2,"The iron borrowed a teacher.","nonsense",3.95560598373,1,"0_057","3","active_ns",1,1,1,"A_first"
"511",13,158.49,158.5,3,"A cat was saved by a king.","sense",3.41603398323,1,"0_057","3","passive_s",1,1,1,"A_first"
"512",14,169.83,169.85,1,"The queen planted a flower.","sense",2.35260605812,1,"0_057","3","active_s",1,1,1,"A_first"
"513",14,169.83,169.85,1,"The queen planted a flower.","sense",8.98479104042,1,"0_057","3","active_s",0,0,1,"A_first"
"514",15,179.98,179.99,1,"The uncle put sugar in the tea.","sense",2.91838002205,1,"0_057","3","active_s",1,1,1,"A_first"
"515",16,190.27,190.28,2,"A basement won the family.","nonsense",3.16310310364,1,"0_057","3","active_ns",1,1,1,"A_first"
"516",17,200.64,200.65,3,"Soup was served by a woman.","sense",3.87345695496,1,"0_057","3","passive_s",1,1,1,"A_first"
"517",18,215.75,215.76,1,"A bird dropped the worm.","sense",3.66463303566,1,"0_057","3","active_s",1,1,1,"A_first"
"518",19,225.84,225.84,3,"A rug was rolled by the actor.","nonsense",6.11654686928,0,"0_057","3","passive_s",1,0,1,"A_first"
"519",20,235.87,235.88,1,"The boy cleared off the table.","sense",3.39037299156,1,"0_057","3","active_s",1,1,1,"A_first"
"520",21,247.77,247.79,2,"A hen carried the dancer.","nonsense",8.24677300453,1,"0_057","3","active_ns",1,1,1,"A_first"
"521",21,247.77,247.79,2,"A hen carried the dancer.","nonsense",9.18889307976,1,"0_057","3","active_ns",0,0,1,"A_first"
"522",21,247.77,247.79,2,"A hen carried the dancer.","nonsense",9.74996399879,1,"0_057","3","active_ns",0,0,1,"A_first"
"523",22,257.97,257.99,3,"The lamp was bought by the sister.","sense",3.87702798843,1,"0_057","3","passive_s",1,1,1,"A_first"
"524",22,257.97,257.99,3,"The lamp was bought by the sister.","sense",7.97901916504,1,"0_057","3","passive_s",0,0,1,"A_first"
"525",23,268.09,268.11,3,"The shirt was stained by mud.","sense",4.63440394402,1,"0_057","3","passive_s",1,1,1,"A_first"
"526",24,280.16,280.17,1,"A tiger scared the zebra.","sense",3.80380487442,1,"0_057","3","active_s",1,1,1,"A_first"
"527",25,296.87,296.89,4,"The girl was told by a fork.","nonsense",3.25662684441,1,"0_057","3","passive_ns",1,1,1,"A_first"
"528",26,312.85,312.86,2,"A fence walked to the mother.","nonsense",3.75481295586,1,"0_057","3","active_ns",1,1,1,"A_first"
"529",27,330.61,330.62,4,"A rope was sold by the frog.","nonsense",3.27497696877,1,"0_057","3","passive_ns",1,1,1,"A_first"
"530",28,343.48,343.49,1,"The banker counted the money.","sense",2.60933899879,1,"0_057","3","active_s",1,1,1,"A_first"
"531",29,360.32,360.33,4,"Pie was raised by the letter.","nonsense",3.98065495491,1,"0_057","3","passive_ns",1,1,1,"A_first"
"532",29,360.32,360.33,4,"Pie was raised by the letter.","nonsense",6.31069493294,1,"0_057","3","passive_ns",0,0,1,"A_first"
"533",30,370.6,370.62,2,"The snake asked for the father.","nonsense",1.83236193657,1,"0_057","3","active_ns",1,1,1,"A_first"
"534",31,381.02,381.04,4,"Fire was licked by a banana.","nonsense",4.86074900627,1,"0_057","3","passive_ns",1,1,1,"A_first"
"535",31,381.02,381.04,4,"Fire was licked by a banana.","nonsense",7.83591580391,1,"0_057","3","passive_ns",0,0,1,"A_first"
"536",0,0,0.03,4,"A worm was jumped by a dress.","nonsense",3.67829084396,1,"0_068","2","passive_ns",1,1,1,"A_first"
"537",1,10.89,10.91,2,"A pizza dropped the cousin.","nonsense",2.36131095886,1,"0_068","2","active_ns",1,1,1,"A_first"
"538",2,21.08,21.09,3,"A hill was climbed by the bug.","nonsense",3.70621800423,0,"0_068","2","passive_s",1,0,1,"A_first"
"539",3,36.88,36.9,2,"The zebra milked the show.","nonsense",3.33805298805,1,"0_068","2","active_ns",1,1,1,"A_first"
"540",4,50.82,50.84,1,"The farmer owned a broom.","sense",1.99856305122,1,"0_068","2","active_s",1,1,1,"A_first"
"541",5,61.13,61.14,4,"A queen was lost by a pen.","nonsense",2.33556509018,1,"0_068","2","passive_ns",1,1,1,"A_first"
"542",6,75.94,75.95,3,"Bread was picked by a boy.","nonsense",3.93680000305,0,"0_068","2","passive_s",1,0,1,"A_first"
"543",7,87.72,87.74,3,"A snake was caught by a girl.","sense",3.14712190628,1,"0_068","2","passive_s",1,1,1,"A_first"
"544",8,99.72,99.73,4,"A box was walked by a duck.","nonsense",2.91194391251,1,"0_068","2","passive_ns",1,1,1,"A_first"
"545",9,111.38,111.4,4,"Meat was watched by an ear.","nonsense",2.29571914673,1,"0_068","2","passive_ns",1,1,1,"A_first"
"546",10,122.22,122.23,1,"A brother opened the present.","nonsense",2.00021600723,0,"0_068","2","active_s",1,0,1,"A_first"
"547",11,134.13,134.14,2,"The soap tasted the monkey.","nonsense",3.22175812721,1,"0_068","2","active_ns",1,1,1,"A_first"
"548",12,146.54,146.54,2,"The seed raised a turtle.","nonsense",3.43417716026,1,"0_068","2","active_ns",1,1,1,"A_first"
"549",13,158.49,158.5,3,"A barn was built by the uncle.","sense",2.36741781235,1,"0_068","2","passive_s",1,1,1,"A_first"
"550",14,169.83,169.84,1,"The cowboy cooked some pasta.","sense",2.77878785133,1,"0_068","2","active_s",1,1,1,"A_first"
"551",15,179.98,179.99,1,"A sister hugged the dancer.","sense",3.22278285027,1,"0_068","2","active_s",1,1,1,"A_first"
"552",16,190.27,190.28,2,"The tiger played a letter.","nonsense",2.97354507446,1,"0_068","2","active_ns",1,1,1,"A_first"
"553",17,200.64,200.65,3,"Water was splashed by a bear.","sense",3.55098676682,1,"0_068","2","passive_s",1,1,1,"A_first"
"554",18,215.75,215.76,1,"The friend borrowed a book.","sense",2.85514903069,1,"0_068","2","active_s",1,1,1,"A_first"
"555",19,225.84,225.84,3,"The honey was made by a bee.","sense",3.18485498428,1,"0_068","2","passive_s",1,1,1,"A_first"
"556",20,235.87,235.88,1,"The mother shopped at the store.","sense",3.21176695824,1,"0_068","2","active_s",1,1,1,"A_first"
"557",21,247.77,247.79,2,"A rope listened to the salt.","nonsense",1.99411988258,1,"0_068","2","active_ns",1,1,1,"A_first"
"558",22,257.97,257.97,3,"Money was won by a team.","sense",4.63697099686,1,"0_068","2","passive_s",1,1,1,"A_first"
"559",23,268.09,268.09,3,"The door was shut by wind.","nonsense",3.42340898514,0,"0_068","2","passive_s",1,0,1,"A_first"
"560",24,280.16,280.17,1,"A king wished for a horse.","sense",1.92610096931,1,"0_068","2","active_s",1,1,1,"A_first"
"561",25,296.87,296.89,4,"A clown was bought by the hen.","nonsense",3.35495090485,1,"0_068","2","passive_ns",1,1,1,"A_first"
"562",26,312.85,312.86,2,"The lamp wrote to the nurse.","nonsense",2.2441470623,1,"0_068","2","active_ns",1,1,1,"A_first"
"563",27,330.61,330.62,4,"The actor was kicked by cake.","nonsense",2.5743560791,1,"0_068","2","passive_ns",1,1,1,"A_first"
"564",28,343.48,343.49,1,"The clerk asked a question.","sense",1.99673295021,1,"0_068","2","active_s",1,1,1,"A_first"
"565",29,360.32,360.33,4,"A father was spotted by the egg.","nonsense",2.8519859314,1,"0_068","2","passive_ns",1,1,1,"A_first"
"566",30,370.6,370.62,2,"The house chewed on the phone.","nonsense",2.94065403938,1,"0_068","2","active_ns",1,1,1,"A_first"
"567",31,381.02,381.02,4,"The bird was told by the boat.","nonsense",2.00962305069,1,"0_068","2","passive_ns",1,1,1,"A_first"
"568",0,0,0.03,2,"A plate stained a kitten.","nonsense",2.40708518028,1,"0_068","3","active_ns",1,1,1,"A_first"
"569",1,10.72,10.74,3,"A wall was marked with paint.","sense",3.83980798721,1,"0_068","3","passive_s",1,1,1,"A_first"
"570",2,21.39,21.41,4,"The hill was addressed by soap.","nonsense",2.94831705093,1,"0_068","3","passive_ns",1,1,1,"A_first"
"571",3,38.56,38.57,1,"The baby rolled in the crib.","sense",1.86856508255,1,"0_068","3","active_s",1,1,1,"A_first"
"572",4,54.45,54.47,4,"Dirt was borrowed by the chalk.","nonsense",2.35548496246,1,"0_068","3","passive_ns",1,1,1,"A_first"
"573",5,64.83,64.84,1,"The cattle listened to the bell.","sense",2.2609128952,1,"0_068","3","active_s",1,1,1,"A_first"
"574",6,80.32,80.33,4,"Mud was dressed by air.","nonsense",2.46677303314,1,"0_068","3","passive_ns",1,1,1,"A_first"
"575",7,90.96,90.97,2,"A ring prepared for a potato.","nonsense",2.55725002289,1,"0_068","3","active_ns",1,1,1,"A_first"
"576",8,106.1,106.11,2,"A game owned the doctor.","nonsense",4.23312497139,1,"0_068","3","active_ns",1,1,1,"A_first"
"577",9,116.71,116.72,1,"The sheep escaped from the wolf.","sense",2.28188204765,1,"0_068","3","active_s",1,1,1,"A_first"
"578",10,131.58,131.59,1,"A woman bought a pizza.","sense",1.92956399918,1,"0_068","3","active_s",1,1,1,"A_first"
"579",11,143.41,143.43,4,"The phone was boiled by a rat.","nonsense",2.74959921837,1,"0_068","3","passive_ns",1,1,1,"A_first"
"580",12,154.13,154.15,4,"The dog was raised by a spoon.","nonsense",3.14493703842,1,"0_068","3","passive_ns",1,1,1,"A_first"
"581",13,164.48,164.49,3,"A pig was scared by a fox.","sense",2.65062904358,1,"0_068","3","passive_s",1,1,1,"A_first"
"582",14,182.42,182.43,1,"The chicken ate some seed.","sense",3.77948999405,1,"0_068","3","active_s",1,1,1,"A_first"
"583",15,193.7,193.71,2,"The pillow jumped at a bear.","nonsense",3.20980596542,1,"0_068","3","active_ns",1,1,1,"A_first"
"584",16,206.11,206.12,4,"A song was picked by a cat.","nonsense",2.7270181179,1,"0_068","3","passive_ns",1,1,1,"A_first"
"585",17,223.68,223.69,3,"The grass was moved by wind.","sense",7.47062897682,1,"0_068","3","passive_s",1,1,1,"A_first"
"586",18,234.74,234.75,3,"A gift was opened by a boy.","sense",1.66129207611,1,"0_068","3","passive_s",1,1,1,"A_first"
"587",19,250.08,250.09,2,"The actress chased the sugar.","nonsense",1.89017987251,1,"0_068","3","active_ns",1,1,1,"A_first"
"588",20,260.45,260.46,3,"Tea was stirred by the aunt.","sense",3.09345388412,1,"0_068","3","passive_s",1,1,1,"A_first"
"589",21,270.85,270.86,1,"The father played the movie.","sense",3.82648515701,1,"0_068","3","active_s",1,1,1,"A_first"
"590",22,280.9,280.92,3,"A hand was licked by a puppy.","sense",3.58966898918,1,"0_068","3","passive_s",1,1,1,"A_first"
"591",23,293.63,293.64,2,"The table climbed on a brother.","nonsense",2.38503503799,1,"0_068","3","active_ns",1,1,1,"A_first"
"592",24,304.11,304.13,4,"The mirror was read by a car.","nonsense",2.5356991291,1,"0_068","3","passive_ns",1,1,1,"A_first"
"593",25,314.89,314.9,1,"The worker built the barn.","sense",3.10991716385,1,"0_068","3","active_s",1,1,1,"A_first"
"594",26,325.02,325.03,3,"A worm was dropped by the bird.","sense",5.00983595848,1,"0_068","3","passive_s",1,1,1,"A_first"
"595",27,339.56,339.57,2,"The broom grabbed the queen.","nonsense",2.76876306534,1,"0_068","3","active_ns",1,1,1,"A_first"
"596",28,350.98,351,1,"The lion roared at the meat.","nonsense",4.41697597504,0,"0_068","3","active_s",1,0,1,"A_first"
"597",29,368.12,368.14,4,"A test was cooked by a bat.","nonsense",2.99575209618,1,"0_068","3","passive_ns",1,1,1,"A_first"
"598",30,380.08,380.09,3,"The shot was given by a nurse.","sense",1.84020495415,1,"0_068","3","passive_s",1,1,1,"A_first"
"599",31,395.78,395.8,2,"A shirt chopped at the tray.","nonsense",2.63913607597,1,"0_068","3","active_ns",1,1,1,"A_first"
"600",0,0,0.03,2,"The money counted the singer.",NA,NA,4,"1_001","1","active_ns",1,0,1,"A_first"
"601",1,10.72,10.74,3,"Clay was rolled by the artist.","sense",3.63546705246,1,"1_001","1","passive_s",1,1,1,"A_first"
"602",2,21.39,21.41,4,"The mat was raced by a fox.","nonsense",3.39470100403,1,"1_001","1","passive_ns",1,1,1,"A_first"
"603",3,38.56,38.57,1,"The aunt walked on the boat.","nonsense",6.99911499023,0,"1_001","1","active_s",1,0,1,"A_first"
"604",4,54.45,54.46,4,"A ball was prepared by glass.","nonsense",5.61978888512,1,"1_001","1","passive_ns",1,1,1,"A_first"
"605",5,64.83,64.84,1,"A driver honked at the walker.","sense",6.08946704865,1,"1_001","1","active_s",1,1,1,"A_first"
"606",6,80.32,80.33,4,"Iron was chased by the bee.","nonsense",7.35534214973,1,"1_001","1","passive_ns",1,1,1,"A_first"
"607",7,90.96,90.97,2,"The rabbit bought the worker.","nonsense",4.79707980156,1,"1_001","1","active_ns",1,1,1,"A_first"
"608",8,106.1,106.11,2,"A candle sold the question.","nonsense",5.78496313095,1,"1_001","1","active_ns",1,1,1,"A_first"
"609",9,116.71,116.72,1,"A mom addressed the letter.","sense",4.38476204872,1,"1_001","1","active_s",1,1,1,"A_first"
"610",10,131.58,131.59,1,"A family baked some bread.","nonsense",4.470307827,2,"1_001","1","active_s",1,0,1,"A_first"
"611",10,131.58,131.59,1,"A family baked some bread.","sense",6.42537999153,2,"1_001","1","active_s",0,0,1,"A_first"
"612",11,143.41,143.43,4,"The woman was pulled by a nut.","nonsense",5.66152906418,1,"1_001","1","passive_ns",1,1,1,"A_first"
"613",12,154.13,154.15,4,"Sugar was moved by the sock.","nonsense",4.30673408508,1,"1_001","1","passive_ns",1,1,1,"A_first"
"614",13,164.48,164.48,3,"The ring was owned by a dancer.","sense",7.38551902771,1,"1_001","1","passive_s",1,1,1,"A_first"
"615",14,182.42,182.43,1,"The child peeled the banana.","sense",4.66222000122,1,"1_001","1","active_s",1,1,1,"A_first"
"616",15,193.7,193.71,2,"The fork called to a sister.","nonsense",4.5826318264,1,"1_001","1","active_ns",1,1,1,"A_first"
"617",16,206.11,206.12,4,"A card was scared by a baby.","nonsense",4.02682995796,1,"1_001","1","passive_ns",1,1,1,"A_first"
"618",17,223.68,223.69,3,"A fence was jumped by a horse.","sense",5.93967700005,1,"1_001","1","passive_s",1,1,1,"A_first"
"619",18,234.74,234.75,3,"Pie was made by a cousin.","nonsense",4.47628378868,2,"1_001","1","passive_s",1,0,1,"A_first"
"620",18,234.74,234.75,3,"Pie was made by a cousin.","sense",6.79135489464,2,"1_001","1","passive_s",0,0,1,"A_first"
"621",19,250.08,250.09,2,"The store cooked on the grass.","nonsense",4.90707302094,1,"1_001","1","active_ns",1,1,1,"A_first"
"622",20,260.45,260.46,3,"The spoon was waved by a cook.","sense",5.71856689453,1,"1_001","1","passive_s",1,1,1,"A_first"
"623",21,270.85,270.86,1,"A tree was planted in dirt.","sense",4.75072598457,1,"1_001","1","active_s",1,1,1,"A_first"
"624",22,280.9,280.92,3,"A joke was told by the queen.","sense",4.15667796135,1,"1_001","1","passive_s",1,1,1,"A_first"
"625",23,293.63,293.64,2,"The soup hired a cowboy.","nonsense",4.09828710556,1,"1_001","1","active_ns",1,1,1,"A_first"
"626",24,304.11,304.13,4,"The mouse was graded by a flag.","nonsense",6.02590489388,1,"1_001","1","passive_ns",1,1,1,"A_first"
"627",25,314.89,314.9,1,"The bear tasted the apple.","sense",5.91015696526,1,"1_001","1","active_s",1,1,1,"A_first"
"628",26,325.02,325.03,3,"Meat was eaten by a lion.","sense",5.68287420273,1,"1_001","1","passive_s",1,1,1,"A_first"
"629",27,339.56,339.57,2,"The puppy scored a dress.","nonsense",3.64398002625,1,"1_001","1","active_ns",1,1,1,"A_first"
"630",28,350.98,350.99,1,"A nurse helped a student.","sense",4.81394290924,1,"1_001","1","active_s",1,1,1,"A_first"
"631",29,368.12,368.13,4,"A wolf was found by a fan.","nonsense",6.08716702461,1,"1_001","1","passive_ns",1,1,1,"A_first"
"632",30,380.08,380.09,3,"The book was read by a friend.","sense",4.26257586479,1,"1_001","1","passive_s",1,1,1,"A_first"
"633",31,395.78,395.8,2,"A chicken shopped at a movie.",NA,NA,4,"1_001","1","active_ns",1,0,1,"A_first"
"634",0,0,0.03,4,"A worm was jumped by a dress.","nonsense",3.62857413292,1,"1_001","2","passive_ns",1,1,1,"A_first"
"635",1,10.89,10.91,2,"A pizza dropped the cousin.","nonsense",5.48180603981,1,"1_001","2","active_ns",1,1,1,"A_first"
"636",2,21.08,21.09,3,"A hill was climbed by the bug.",NA,NA,4,"1_001","2","passive_s",1,0,1,"A_first"
"637",3,36.88,36.9,2,"The zebra milked the show.","nonsense",4.65260386467,1,"1_001","2","active_ns",1,1,1,"A_first"
"638",4,50.82,50.84,1,"The farmer owned a broom.","sense",3.30885601044,1,"1_001","2","active_s",1,1,1,"A_first"
"639",5,61.13,61.14,4,"A queen was lost by a pen.","nonsense",6.20807409286,1,"1_001","2","passive_ns",1,1,1,"A_first"
"640",6,75.94,75.95,3,"Bread was picked by a boy.","sense",4.78329205513,1,"1_001","2","passive_s",1,1,1,"A_first"
"641",7,87.72,87.74,3,"A snake was caught by a girl.","nonsense",3.97639107704,0,"1_001","2","passive_s",1,0,1,"A_first"
"642",8,99.72,99.72,4,"A box was walked by a duck.","nonsense",5.4105758667,1,"1_001","2","passive_ns",1,1,1,"A_first"
"643",9,111.38,111.4,4,"Meat was watched by an ear.","nonsense",4.60158610344,1,"1_001","2","passive_ns",1,1,1,"A_first"
"644",10,122.22,122.23,1,"A brother opened the present.","sense",4.63700318336,1,"1_001","2","active_s",1,1,1,"A_first"
"645",11,134.13,134.14,2,"The soap tasted the monkey.","nonsense",5.33747720718,1,"1_001","2","active_ns",1,1,1,"A_first"
"646",12,146.54,146.54,2,"The seed raised a turtle.","nonsense",4.84555196762,1,"1_001","2","active_ns",1,1,1,"A_first"
"647",13,158.49,158.5,3,"A barn was built by the uncle.","nonsense",5.95233607292,0,"1_001","2","passive_s",1,0,1,"A_first"
"648",14,169.83,169.84,1,"The cowboy cooked some pasta.","sense",3.91950011253,1,"1_001","2","active_s",1,1,1,"A_first"
"649",15,179.98,179.99,1,"A sister hugged the dancer.","sense",3.25759410858,1,"1_001","2","active_s",1,1,1,"A_first"
"650",16,190.27,190.28,2,"The tiger played a letter.","nonsense",5.01831293106,1,"1_001","2","active_ns",1,1,1,"A_first"
"651",17,200.64,200.65,3,"Water was splashed by a bear.","sense",6.4117629528,1,"1_001","2","passive_s",1,1,1,"A_first"
"652",18,215.75,215.76,1,"The friend borrowed a book.","sense",3.50587797165,1,"1_001","2","active_s",1,1,1,"A_first"
"653",19,225.84,225.84,3,"The honey was made by a bee.","sense",4.19849705696,1,"1_001","2","passive_s",1,1,1,"A_first"
"654",20,235.87,235.88,1,"The mother shopped at the store.","sense",4.55759882927,1,"1_001","2","active_s",1,1,1,"A_first"
"655",21,247.77,247.79,2,"A rope listened to the salt.","nonsense",4.93800902367,1,"1_001","2","active_ns",1,1,1,"A_first"
"656",22,257.97,257.97,3,"Money was won by a team.","nonsense",4.33182215691,0,"1_001","2","passive_s",1,0,1,"A_first"
"657",23,268.09,268.09,3,"The door was shut by wind.","nonsense",5.2072930336,0,"1_001","2","passive_s",1,0,1,"A_first"
"658",24,280.16,280.17,1,"A king wished for a horse.","sense",4.25197601318,1,"1_001","2","active_s",1,1,1,"A_first"
"659",25,296.87,296.89,4,"A clown was bought by the hen.","nonsense",7.51402688026,1,"1_001","2","passive_ns",1,1,1,"A_first"
"660",26,312.85,312.86,2,"The lamp wrote to the nurse.","nonsense",6.7392771244,1,"1_001","2","active_ns",1,1,1,"A_first"
"661",27,330.61,330.62,4,"The actor was kicked by cake.","nonsense",5.51837992668,1,"1_001","2","passive_ns",1,1,1,"A_first"
"662",28,343.48,343.49,1,"The clerk asked a question.","sense",7.64292311668,1,"1_001","2","active_s",1,1,1,"A_first"
"663",29,360.32,360.33,4,"A father was spotted by the egg.","nonsense",7.32920908928,1,"1_001","2","passive_ns",1,1,1,"A_first"
"664",30,370.6,370.6,2,"The house chewed on the phone.","nonsense",5.27852201462,1,"1_001","2","active_ns",1,1,1,"A_first"
"665",31,381.02,381.02,4,"The bird was told by the boat.","nonsense",5.10157608986,1,"1_001","2","passive_ns",1,1,1,"A_first"
"666",0,0,0.03,1,"A woman bought a pizza.","sense",3.05210113525,1,"1_001","3","active_s",1,1,1,"A_first"
"667",1,10.16,10.17,2,"The pillow jumped at a bear.","nonsense",3.82411003113,1,"1_001","3","active_ns",1,1,1,"A_first"
"668",2,25.97,25.98,3,"Tea was stirred by the aunt.","nonsense",4.04786276817,0,"1_001","3","passive_s",1,0,1,"A_first"
"669",3,40.97,40.98,3,"A gift was opened by a boy.","sense",3.80330896378,1,"1_001","3","passive_s",1,1,1,"A_first"
"670",4,53.69,53.71,2,"A game owned the doctor.","nonsense",3.86671090126,1,"1_001","3","active_ns",1,1,1,"A_first"
"671",5,64.57,64.58,3,"A pig was scared by a fox.","sense",6.61786413193,1,"1_001","3","passive_s",1,1,1,"A_first"
"672",6,75.24,75.25,4,"The dog was raised by a spoon.","nonsense",5.94732403755,1,"1_001","3","passive_ns",1,1,1,"A_first"
"673",7,86.91,86.92,1,"The cattle listened to the bell.","sense",6.38806796074,1,"1_001","3","active_s",1,1,1,"A_first"
"674",8,103.03,103.04,2,"A shirt chopped at the tray.","nonsense",5.01822900772,1,"1_001","3","active_ns",1,1,1,"A_first"
"675",9,118.89,118.9,4,"A song was picked by a cat.","nonsense",3.0220079422,1,"1_001","3","passive_ns",1,1,1,"A_first"
"676",10,128.92,128.94,1,"The baby rolled in the crib.","sense",3.68195796013,1,"1_001","3","active_s",1,1,1,"A_first"
"677",11,141.14,141.16,3,"The grass was moved by wind.","sense",4.47855186462,1,"1_001","3","passive_s",1,1,1,"A_first"
"678",12,151.22,151.23,3,"A card was marked with paint.",NA,NA,4,"1_001","3","passive_s",1,0,1,"A_first"
"679",13,161.68,161.68,4,"A test was cooked by a bat.","nonsense",3.91027593613,1,"1_001","3","passive_ns",1,1,1,"A_first"
"680",14,172.84,172.85,2,"The broom grabbed the queen.","nonsense",5.12217712402,1,"1_001","3","active_ns",1,1,1,"A_first"
"681",15,183.02,183.03,3,"The shot was given by a nurse.","nonsense",5.13471102715,0,"1_001","3","passive_s",1,0,1,"A_first"
"682",16,195.2,195.21,4,"The mirror was read by a car.","nonsense",4.7186870575,1,"1_001","3","passive_ns",1,1,1,"A_first"
"683",17,212.76,212.77,2,"A plate stained a kitten.","nonsense",6.66289114952,1,"1_001","3","active_ns",1,1,1,"A_first"
"684",18,223.41,223.43,1,"The lion roared at the meat.","sense",4.60486006737,1,"1_001","3","active_s",1,1,1,"A_first"
"685",19,237.03,237.05,4,"Mud was dressed by air.","nonsense",4.14896702766,1,"1_001","3","passive_ns",1,1,1,"A_first"
"686",20,248.04,248.05,1,"The father played the movie.","sense",3.41785216331,1,"1_001","3","active_s",1,1,1,"A_first"
"687",21,258.46,258.47,3,"A hand was licked by a puppy.","sense",6.33115005493,1,"1_001","3","passive_s",1,1,1,"A_first"
"688",22,274.9,274.91,1,"The worker built the barn.","sense",3.43358302116,1,"1_001","3","active_s",1,1,1,"A_first"
"689",23,289.51,289.52,4,"The hill was addressed by soap.","nonsense",6.38501095772,1,"1_001","3","passive_ns",1,1,1,"A_first"
"690",24,303.52,303.53,2,"A ring prepared for a potato.","nonsense",7.95575690269,1,"1_001","3","active_ns",1,1,1,"A_first"
"691",25,319.75,319.77,1,"The chicken ate some seed.","sense",5.34007191658,1,"1_001","3","active_s",1,1,1,"A_first"
"692",26,329.89,329.9,1,"The sheep escaped from the wolf.","sense",7.32691407204,1,"1_001","3","active_s",1,1,1,"A_first"
"693",27,343.4,343.41,4,"Dirt was borrowed by the chalk.","nonsense",5.67572689056,1,"1_001","3","passive_ns",1,1,1,"A_first"
"694",28,353.98,354,2,"The table climbed on a brother.","nonsense",3.7473089695,1,"1_001","3","active_ns",1,1,1,"A_first"
"695",29,370.82,370.84,3,"A worm was dropped by the bird.","sense",7.25873804092,1,"1_001","3","passive_s",1,1,1,"A_first"
"696",30,382.44,382.46,4,"The phone was boiled by a rat.","nonsense",7.57152605057,1,"1_001","3","passive_ns",1,1,1,"A_first"
"697",31,392.48,392.5,2,"The actress chased the sugar.","nonsense",7.31337404251,1,"1_001","3","active_ns",1,1,1,"A_first"
"698",0,0,0.05,2,"A pillow scratched the fish.","nonsense",2.48956799507,1,"1_002","2","active_ns",1,1,1,"A_first"
"699",0,0,0.05,2,"A pillow scratched the fish.","nonsense",7.27073693275,1,"1_002","2","active_ns",0,0,1,"A_first"
"700",1,10.72,10.74,3,"A broom was sold by a farmer.","sense",3.9013569355,1,"1_002","2","passive_s",1,1,1,"A_first"
"701",2,21.39,21.41,4,"The dragon was won by clay.","sense",6.98157215118,0,"1_002","2","passive_ns",1,0,1,"A_first"
"702",3,38.56,38.58,1,"The monkey climbed a tree.",NA,NA,4,"1_002","2","active_s",1,0,1,"A_first"
"703",4,54.45,54.47,4,"A man was scored by wind.","sense",6.092015028,0,"1_002","2","passive_ns",1,0,1,"A_first"
"704",5,64.83,64.84,1,"The rabbit jumped in the grass.","sense",2.80120205879,1,"1_002","2","active_s",1,1,1,"A_first"
"705",6,80.32,80.33,4,"A flower was milked by a bear.","nonsense",4.56008601189,1,"1_002","2","passive_ns",1,1,1,"A_first"
"706",7,90.96,90.97,2,"A chicken shopped at a movie.","nonsense",5.95762491226,1,"1_002","2","active_ns",1,1,1,"A_first"
"707",8,106.1,106.13,2,"The apple watched a king.","nonsense",4.27286696434,1,"1_002","2","active_ns",1,1,1,"A_first"
"708",9,116.71,116.73,1,"The actor pulled on a rope.","sense",5.7827899456,1,"1_002","2","active_s",1,1,1,"A_first"
"709",10,131.58,131.6,1,"A cowgirl caught a snake.","sense",6.78473186493,1,"1_002","2","active_s",1,1,1,"A_first"
"710",11,143.41,143.43,4,"The bug was cooked by a key.","nonsense",4.63512206078,1,"1_002","2","passive_ns",1,1,1,"A_first"
"711",12,154.13,154.15,4,"Seed was raised by the rug.","nonsense",6.19951796532,1,"1_002","2","passive_ns",1,1,1,"A_first"
"712",13,164.48,164.5,3,"A box was cut by the worker.","sense",4.94477987289,1,"1_002","2","passive_s",1,1,1,"A_first"
"713",14,182.42,182.44,1,"The doctor used the phone.","sense",3.4961669445,1,"1_002","2","active_s",1,1,1,"A_first"
"714",15,193.7,193.71,2,"A piano planted a brother.","nonsense",4.82361793518,1,"1_002","2","active_ns",1,1,1,"A_first"
"715",16,206.11,206.12,4,"The pig was hugged by a joke.","nonsense",7.6229019165,1,"1_002","2","passive_ns",1,1,1,"A_first"
"716",17,223.68,223.69,3,"A cake was baked by mom.","sense",3.36423516273,1,"1_002","2","passive_s",1,1,1,"A_first"
"717",18,234.74,234.76,3,"The egg was lost by the duck.","nonsense",5.81043696404,0,"1_002","2","passive_s",1,0,1,"A_first"
"718",19,250.08,250.1,2,"A present picked the raccoon.","nonsense",6.05220508575,1,"1_002","2","active_ns",1,1,1,"A_first"
"719",20,260.45,260.47,3,"A fork was found by the kid.","nonsense",3.24361991882,0,"1_002","2","passive_s",1,0,1,"A_first"
"720",21,270.85,270.86,1,"The dog chased the car.","sense",2.85733580589,1,"1_002","2","active_s",1,1,1,"A_first"
"721",22,280.9,280.92,3,"The sock was worn by a baby.","sense",3.44352388382,1,"1_002","2","passive_s",1,1,1,"A_first"
"722",23,293.63,293.65,2,"The bucket told a horse.","nonsense",3.57524895668,1,"1_002","2","active_ns",1,1,1,"A_first"
"723",24,304.11,304.13,4,"A couch was saved by a plum.","nonsense",3.99257779121,1,"1_002","2","passive_ns",1,1,1,"A_first"
"724",25,314.89,314.91,1,"A teacher graded a paper.","sense",2.90201807022,1,"1_002","2","active_s",1,1,1,"A_first"
"725",26,325.02,325.03,3,"The ball was kicked by a girl.","sense",2.81656503677,1,"1_002","2","passive_s",1,1,1,"A_first"
"726",27,339.56,339.57,2,"The chalk wanted a child.","nonsense",4.05766892433,1,"1_002","2","active_ns",1,1,1,"A_first"
"727",28,350.98,350.99,1,"A turtle crawled to the water.","sense",5.751693964,1,"1_002","2","active_s",1,1,1,"A_first"
"728",29,368.12,368.14,4,"A hand was built by the ant.","nonsense",5.44089889526,1,"1_002","2","passive_ns",1,1,1,"A_first"
"729",30,380.08,380.11,3,"Cheese was chewed by a rat.","sense",5.32959890366,1,"1_002","2","passive_s",1,1,1,"A_first"
"730",31,395.78,395.8,2,"The bread heard a camel.","nonsense",3.26516819,1,"1_002","2","active_ns",1,1,1,"A_first"
"731",0,0,0.05,1,"A bird dropped the worm.","sense",5.94579815865,1,"1_002","3","active_s",1,1,1,"A_first"
"732",1,10.16,10.17,2,"The couch sang to the duck.","nonsense",6.03227996826,1,"1_002","3","active_ns",1,1,1,"A_first"
"733",2,25.97,25.99,3,"The show was seen by a child.","sense",5.68471598625,1,"1_002","3","passive_s",1,1,1,"A_first"
"734",3,40.97,40.98,3,"A rug was rolled by the actor.",NA,NA,4,"1_002","3","passive_s",1,0,1,"A_first"
"735",4,53.69,53.71,2,"A hen carried the dancer.","nonsense",3.46497392654,1,"1_002","3","active_ns",1,1,1,"A_first"
"736",5,64.57,64.59,3,"Pizza was cooked by the man.","sense",4.68749809265,1,"1_002","3","passive_s",1,1,1,"A_first"
"737",6,75.24,75.26,4,"A chair was tasted by a frame.","nonsense",5.56373405457,1,"1_002","3","passive_ns",1,1,1,"A_first"
"738",7,86.91,86.94,1,"The uncle put sugar in the tea.","sense",4.78866696358,1,"1_002","3","active_s",1,1,1,"A_first"
"739",8,103.03,103.04,2,"A fence walked to the mother.","nonsense",4.32948708534,1,"1_002","3","active_ns",1,1,1,"A_first"
"740",9,118.89,118.92,4,"Fire was licked by a banana.","nonsense",4.34769201279,1,"1_002","3","passive_ns",1,1,1,"A_first"
"741",10,128.92,128.94,1,"A fly entered the house.","sense",5.50728988647,1,"1_002","3","active_s",1,1,1,"A_first"
"742",11,141.14,141.16,3,"A cat was saved by a king.","nonsense",4.6049079895,2,"1_002","3","passive_s",1,0,1,"A_first"
"743",11,141.14,141.16,3,"A cat was saved by a king.","sense",5.23485803604,2,"1_002","3","passive_s",0,0,1,"A_first"
"744",11,141.14,141.16,3,"A cat was saved by a king.","sense",6.15493106842,2,"1_002","3","passive_s",0,0,1,"A_first"
"745",12,151.22,151.23,3,"The shirt was stained by mud.","sense",4.08429193497,1,"1_002","3","passive_s",1,1,1,"A_first"
"746",13,161.68,161.7,4,"Pasta was waved by a fish.","nonsense",6.18474984169,1,"1_002","3","passive_ns",1,1,1,"A_first"
"747",14,172.84,172.85,2,"A joke hugged the dragon.","nonsense",3.09649205208,1,"1_002","3","active_ns",1,1,1,"A_first"
"748",15,183.02,183.04,3,"A phone was used by a doctor.","sense",2.46123504639,1,"1_002","3","passive_s",1,1,1,"A_first"
"749",15,183.02,183.04,3,"A phone was used by a doctor.","sense",6.49240207672,1,"1_002","3","passive_s",0,0,1,"A_first"
"750",16,195.2,195.21,4,"A cup was cut by the pillow.","nonsense",5.24784302711,1,"1_002","3","passive_ns",1,1,1,"A_first"
"751",17,212.76,212.79,2,"The snake asked for the father.","nonsense",5.56361794472,1,"1_002","3","active_ns",1,1,1,"A_first"
"752",18,223.41,223.43,1,"A mouse chewed on the cheese.","sense",5.51837396622,1,"1_002","3","active_s",1,1,1,"A_first"
"753",19,237.03,237.05,4,"Pie was raised by the letter.","nonsense",4.26340198517,1,"1_002","3","passive_ns",1,1,1,"A_first"
"754",20,248.04,248.05,1,"The banker counted the money.","sense",4.98405194283,1,"1_002","3","active_s",1,1,1,"A_first"
"755",21,258.46,258.47,3,"The lamp was bought by the sister.","sense",4.36744713783,1,"1_002","3","passive_s",1,1,1,"A_first"
"756",22,274.9,274.93,1,"The boy cleared off the table.","sense",3.12802004814,1,"1_002","3","active_s",1,1,1,"A_first"
"757",23,289.51,289.54,4,"Bread was scratched by a tray.","nonsense",5.95858597755,1,"1_002","3","passive_ns",1,1,1,"A_first"
"758",24,303.52,303.54,2,"The ear dressed a student.","sense",4.95713090897,2,"1_002","3","active_ns",1,0,1,"A_first"
"759",24,303.52,303.54,2,"The ear dressed a student.","nonsense",5.68903708458,2,"1_002","3","active_ns",0,0,1,"A_first"
"760",24,303.52,303.54,2,"The ear dressed a student.","nonsense",6.55019712448,2,"1_002","3","active_ns",0,0,1,"A_first"
"761",25,319.75,319.77,1,"The queen planted a flower.","sense",4.91238021851,1,"1_002","3","active_s",1,1,1,"A_first"
"762",26,329.89,329.9,1,"A tiger scared the zebra.","sense",3.97217106819,1,"1_002","3","active_s",1,1,1,"A_first"
"763",27,343.4,343.42,4,"A rope was sold by the frog.",NA,NA,4,"1_002","3","passive_ns",1,0,1,"A_first"
"764",28,353.98,354,2,"The iron borrowed a teacher.","sense",4.59157705307,2,"1_002","3","active_ns",1,0,1,"A_first"
"765",28,353.98,354,2,"The iron borrowed a teacher.","nonsense",5.00145792961,2,"1_002","3","active_ns",0,0,1,"A_first"
"766",28,353.98,354,2,"The iron borrowed a teacher.","nonsense",5.67161083221,2,"1_002","3","active_ns",0,0,1,"A_first"
"767",29,370.82,370.84,3,"Soup was served by a woman.","sense",3.8798251152,1,"1_002","3","passive_s",1,1,1,"A_first"
"768",30,382.44,382.46,4,"The girl was told by a fork.","nonsense",4.18267512321,1,"1_002","3","passive_ns",1,1,1,"A_first"
"769",31,392.48,392.5,2,"A basement won the family.",NA,NA,4,"1_002","3","active_ns",1,0,1,"A_first"
"770",0,0,0.03,4,"The soup was caught by a ring.","nonsense",0.1137778759,3,"1_004","1","passive_ns",1,0,1,"A_first"
"771",0,0,0.03,4,"The soup was caught by a ring.","nonsense",5.9198448658,3,"1_004","1","passive_ns",0,0,1,"A_first"
"772",1,10.89,10.91,2,"A goat graded the mirror.","nonsense",5.19502902031,1,"1_004","1","active_ns",1,1,1,"A_first"
"773",2,21.08,21.09,3,"The movie was played by dad.",NA,NA,4,"1_004","1","passive_s",1,0,1,"A_first"
"774",3,36.88,36.9,2,"The barn barked at the driver.",NA,NA,4,"1_004","1","active_ns",1,0,1,"A_first"
"775",4,50.82,50.84,1,"A clown let go of a balloon.","sense",6.75821995735,1,"1_004","1","active_s",1,1,1,"A_first"
"776",5,61.13,61.14,4,"The boy was owned by a lamp.","nonsense",4.69588303566,1,"1_004","1","passive_ns",1,1,1,"A_first"
"777",6,75.94,75.95,3,"The test was read by a teacher.","sense",5.12633180618,1,"1_004","1","passive_s",1,1,1,"A_first"
"778",7,87.72,87.74,3,"Seed was pecked by a hen.","sense",5.67869496346,1,"1_004","1","passive_s",1,1,1,"A_first"
"779",8,99.72,99.72,4,"A table was planted by a kid.","sense",4.76678013802,0,"1_004","1","passive_ns",1,0,1,"A_first"
"780",9,111.38,111.4,4,"A king was chewed by a tree.","nonsense",5.07044291496,1,"1_004","1","passive_ns",1,1,1,"A_first"
"781",10,122.22,122.23,1,"A girl kicked the ball.","nonsense",5.42515301704,0,"1_004","1","active_s",1,0,1,"A_first"
"782",11,134.13,134.14,2,"The woman scared the paper.","nonsense",4.00654697418,1,"1_004","1","active_ns",1,1,1,"A_first"
"783",12,146.54,146.54,2,"The flag roared at a flower.","sense",6.22376704216,0,"1_004","1","active_ns",1,0,1,"A_first"
"784",13,158.49,158.5,3,"A home was entered by the men.","sense",4.72043514252,1,"1_004","1","passive_s",1,1,1,"A_first"
"785",14,169.83,169.84,1,"The actress watched a show.","nonsense",6.68467593193,0,"1_004","1","active_s",1,0,1,"A_first"
"786",15,179.98,179.99,1,"A cousin wanted a pillow.","nonsense",7.97703289986,0,"1_004","1","active_s",1,0,1,"A_first"
"787",16,190.27,190.28,2,"The banana lost the worm.","nonsense",7.19558691978,1,"1_004","1","active_ns",1,1,1,"A_first"
"788",17,200.64,200.65,3,"The car was chased by a dog.","sense",7.81299996376,1,"1_004","1","passive_s",1,1,1,"A_first"
"789",18,215.75,215.76,1,"The mother carried a cake.",NA,NA,4,"1_004","1","active_s",1,0,1,"A_first"
"790",19,225.84,225.84,3,"A rope was pulled by the ape.","sense",6.53600287437,1,"1_004","1","passive_s",1,1,1,"A_first"
"791",20,235.87,235.88,1,"A raccoon scratched at the box.","sense",5.23153614998,1,"1_004","1","active_s",1,1,1,"A_first"
"792",21,247.77,247.79,2,"The sock listened to the pig.","nonsense",5.99336791039,1,"1_004","1","active_ns",1,1,1,"A_first"
"793",22,257.97,257.97,3,"The plum was tasted by a bear.","sense",7.49109911919,1,"1_004","1","passive_s",1,1,1,"A_first"
"794",23,268.09,268.09,3,"A song was sung by the cowboy.","sense",5.32249712944,1,"1_004","1","passive_s",1,1,1,"A_first"
"795",24,280.16,280.17,1,"The baker stirred the spoon.","nonsense",6.17329406738,0,"1_004","1","active_s",1,0,1,"A_first"
"796",25,296.87,296.89,4,"The door was eaten by a pot.","nonsense",4.23219895363,1,"1_004","1","passive_ns",1,1,1,"A_first"
"797",26,312.85,312.86,2,"A boat raced in the library.","nonsense",6.40036511421,1,"1_004","1","active_ns",1,1,1,"A_first"
"798",27,330.61,330.62,4,"Pizza was used by a book.","nonsense",7.40763092041,1,"1_004","1","passive_ns",1,1,1,"A_first"
"799",28,343.48,343.49,1,"A falcon grabbed the egg.",NA,NA,4,"1_004","1","active_s",1,0,1,"A_first"
"800",29,360.32,360.33,4,"A horse was peeled by salt.","nonsense",6.35128688812,1,"1_004","1","passive_ns",1,1,1,"A_first"
"801",30,370.6,370.62,2,"The key opened the carrot.","nonsense",4.9421210289,1,"1_004","1","active_ns",1,1,1,"A_first"
"802",31,381.02,381.02,4,"A chicken was asked by a bell.",NA,NA,4,"1_004","1","passive_ns",1,0,1,"A_first"
"803",0,0,0.03,1,"A bird dropped the worm.","nonsense",2.21667408943,0,"1_004","2","active_s",1,0,1,"A_first"
"804",1,10.16,10.17,2,"The couch sang to the duck.","nonsense",4.94361305237,1,"1_004","2","active_ns",1,1,1,"A_first"
"805",2,25.97,25.98,3,"The show was seen by a child.","nonsense",7.44772219658,0,"1_004","2","passive_s",1,0,1,"A_first"
"806",3,40.97,40.98,3,"A rug was rolled by the actor.","sense",7.69787597656,1,"1_004","2","passive_s",1,1,1,"A_first"
"807",4,53.69,53.71,2,"A hen carried the dancer.","nonsense",5.63235521317,1,"1_004","2","active_ns",1,1,1,"A_first"
"808",5,64.57,64.58,3,"Pizza was cooked by the man.","sense",5.47660708427,1,"1_004","2","passive_s",1,1,1,"A_first"
"809",6,75.24,75.25,4,"A chair was tasted by a frame.","nonsense",7.94212007523,1,"1_004","2","passive_ns",1,1,1,"A_first"
"810",7,86.91,86.92,1,"The uncle put sugar in the tea.","sense",6.20779204369,1,"1_004","2","active_s",1,1,1,"A_first"
"811",8,103.03,103.04,2,"A fence walked to the mother.",NA,NA,4,"1_004","2","active_ns",1,0,1,"A_first"
"812",9,118.89,118.9,4,"Fire was licked by a banana.","nonsense",5.72886610031,1,"1_004","2","passive_ns",1,1,1,"A_first"
"813",10,128.92,128.94,1,"A fly entered the house.","sense",7.14861893654,1,"1_004","2","active_s",1,1,1,"A_first"
"814",11,141.14,141.16,3,"A cat was saved by a king.","nonsense",6.83945298195,0,"1_004","2","passive_s",1,0,1,"A_first"
"815",12,151.22,151.23,3,"The shirt was stained by mud.",NA,NA,4,"1_004","2","passive_s",1,0,1,"A_first"
"816",13,161.68,161.68,4,"Pasta was waved by a fish.",NA,NA,4,"1_004","2","passive_ns",1,0,1,"A_first"
"817",14,172.84,172.85,2,"A joke hugged the dragon.","nonsense",4.58197689056,1,"1_004","2","active_ns",1,1,1,"A_first"
"818",15,183.02,183.03,3,"A phone was used by a doctor.",NA,NA,4,"1_004","2","passive_s",1,0,1,"A_first"
"819",16,195.2,195.21,4,"A cup was cut by the pillow.","nonsense",6.49041008949,1,"1_004","2","passive_ns",1,1,1,"A_first"
"820",17,212.76,212.77,2,"The snake asked for the father.","nonsense",6.0016310215,1,"1_004","2","active_ns",1,1,1,"A_first"
"821",18,223.41,223.43,1,"A mouse chewed on the cheese.","sense",4.88948512077,1,"1_004","2","active_s",1,1,1,"A_first"
"822",19,237.03,237.05,4,"Pie was raised by the letter.","nonsense",4.94576406479,1,"1_004","2","passive_ns",1,1,1,"A_first"
"823",20,248.04,248.05,1,"The banker counted the money.","sense",5.67250704765,1,"1_004","2","active_s",1,1,1,"A_first"
"824",21,258.46,258.47,3,"The lamp was bought by the sister.",NA,NA,4,"1_004","2","passive_s",1,0,1,"A_first"
"825",22,274.9,274.91,1,"The boy cleared off the table.","sense",3.99614500999,1,"1_004","2","active_s",1,1,1,"A_first"
"826",23,289.51,289.52,4,"Bread was scratched by a tray.","nonsense",5.16074490547,1,"1_004","2","passive_ns",1,1,1,"A_first"
"827",24,303.52,303.53,2,"The ear dressed a student.","nonsense",6.45541501045,1,"1_004","2","active_ns",1,1,1,"A_first"
"828",25,319.75,319.77,1,"The queen planted a flower.","sense",6.25376200676,1,"1_004","2","active_s",1,1,1,"A_first"
"829",26,329.89,329.9,1,"A tiger scared the zebra.","sense",6.42555594444,1,"1_004","2","active_s",1,1,1,"A_first"
"830",27,343.4,343.41,4,"A rope was sold by the frog.","nonsense",5.89537620544,1,"1_004","2","passive_ns",1,1,1,"A_first"
"831",28,353.98,354,2,"The iron borrowed a teacher.","nonsense",6.86404395103,1,"1_004","2","active_ns",1,1,1,"A_first"
"832",29,370.82,370.84,3,"Soup was served by a woman.","sense",5.89725804329,1,"1_004","2","passive_s",1,1,1,"A_first"
"833",30,382.44,382.46,4,"The girl was told by a fork.",NA,NA,4,"1_004","2","passive_ns",1,0,1,"A_first"
"834",31,392.48,392.5,2,"A basement won the family.","nonsense",0.520964860916,1,"1_004","2","active_ns",1,1,1,"A_first"
"835",31,392.48,392.5,2,"A basement won the family.","nonsense",6.12810993195,1,"1_004","2","active_ns",0,0,1,"A_first"
