"","TrialNum","Onset","TrueOns","Cond","Sentence","Resp","RT","correct","subind","runnum","cond_type","rep","corr_first","group_num","group"
"1",0,0,0.03,2,"A fence walked to the mother.","nonsense",3.49229097366,1,"ldrc_0_009","1","active_ns",FALSE,1,1,"A_first"
"2",1,10.72,10.74,3,"The shirt was stained by mud.","sense",5.71239614487,1,"ldrc_0_009","1","passive_s",FALSE,1,1,"A_first"
"3",2,21.39,21.41,4,"Fire was licked by a banana.","nonsense",3.54347896576,1,"ldrc_0_009","1","passive_ns",FALSE,1,1,"A_first"
"4",3,38.56,38.57,1,"The banker counted the money.","sense",2.54493284225,1,"ldrc_0_009","1","active_s",FALSE,1,1,"A_first"
"5",4,54.45,54.46,4,"Pie was raised by the letter.","nonsense",4.43052697182,1,"ldrc_0_009","1","passive_ns",FALSE,1,1,"A_first"
"6",5,64.83,64.84,1,"The boy cleared off the table.","sense",2.70104789734,1,"ldrc_0_009","1","active_s",FALSE,1,1,"A_first"
"7",6,80.32,80.33,4,"A rope was sold by the frog.","nonsense",3.67592787743,1,"ldrc_0_009","1","passive_ns",FALSE,1,1,"A_first"
"8",7,90.96,90.97,2,"The snake asked for the father.","nonsense",5.52585411072,1,"ldrc_0_009","1","active_ns",FALSE,1,1,"A_first"
"9",8,106.1,106.11,2,"A basement won the family.","sense",6.37172794342,0,"ldrc_0_009","1","active_ns",FALSE,0,1,"A_first"
"10",9,116.71,116.72,1,"A tiger scared the zebra.","sense",2.51631903648,1,"ldrc_0_009","1","active_s",FALSE,1,1,"A_first"
"11",10,131.58,131.59,1,"A bird dropped the worm.","sense",3.58711910248,1,"ldrc_0_009","1","active_s",FALSE,1,1,"A_first"
"12",11,143.41,143.43,4,"The girl was told by a fork.","nonsense",4.86519002914,1,"ldrc_0_009","1","passive_ns",FALSE,1,1,"A_first"
"13",12,154.13,154.15,4,"Bread was scratched by a tray.","nonsense",5.07641911507,1,"ldrc_0_009","1","passive_ns",FALSE,1,1,"A_first"
"14",13,164.48,164.48,3,"The lamp was bought by the sister.",NA,NA,4,"ldrc_0_009","1","passive_s",FALSE,0,1,"A_first"
"15",14,182.42,182.43,1,"The uncle put sugar in the tea.","sense",7.01002001762,1,"ldrc_0_009","1","active_s",FALSE,1,1,"A_first"
"16",15,193.7,193.71,2,"A hen carried the dancer.","nonsense",4.18725800514,1,"ldrc_0_009","1","active_ns",FALSE,1,1,"A_first"
"17",16,206.11,206.12,4,"A chair was tasted by a frame.","nonsense",4.16658091545,1,"ldrc_0_009","1","passive_ns",FALSE,1,1,"A_first"
"18",17,223.68,223.69,3,"The show was seen by a child.","sense",5.92426991463,1,"ldrc_0_009","1","passive_s",FALSE,1,1,"A_first"
"19",18,234.74,234.75,3,"Soup was served by a woman.","sense",5.8121111393,1,"ldrc_0_009","1","passive_s",FALSE,1,1,"A_first"
"20",19,250.08,250.09,2,"The iron borrowed a teacher.","nonsense",3.6659579277,1,"ldrc_0_009","1","active_ns",FALSE,1,1,"A_first"
"21",20,260.45,260.46,3,"A cat was saved by a king.","sense",5.51409983635,1,"ldrc_0_009","1","passive_s",FALSE,1,1,"A_first"
"22",21,270.85,270.86,1,"The queen planted a flower.","sense",3.43304991722,1,"ldrc_0_009","1","active_s",FALSE,1,1,"A_first"
"23",22,280.9,280.92,3,"A rug was rolled by the actor.","nonsense",5.60632395744,0,"ldrc_0_009","1","passive_s",FALSE,0,1,"A_first"
"24",23,293.63,293.64,2,"The couch sang to the duck.","nonsense",3.62780189514,1,"ldrc_0_009","1","active_ns",FALSE,1,1,"A_first"
"25",24,304.11,304.13,4,"Pasta was waved by a fish.","nonsense",3.66849112511,1,"ldrc_0_009","1","passive_ns",FALSE,1,1,"A_first"
"26",25,314.89,314.9,1,"A mouse chewed on the cheese.","sense",4.22380590439,1,"ldrc_0_009","1","active_s",FALSE,1,1,"A_first"
"27",26,325.02,325.03,3,"A phone was used by a doctor.","sense",3.0033929348,1,"ldrc_0_009","1","passive_s",FALSE,1,1,"A_first"
"28",27,339.56,339.57,2,"The ear dressed a student.","nonsense",5.04358816147,1,"ldrc_0_009","1","active_ns",FALSE,1,1,"A_first"
"29",28,350.98,350.99,1,"A fly entered the house.","sense",3.11172294617,1,"ldrc_0_009","1","active_s",FALSE,1,1,"A_first"
"30",29,368.12,368.14,4,"A cup was cut by the pillow.","nonsense",4.94172000885,1,"ldrc_0_009","1","passive_ns",FALSE,1,1,"A_first"
"31",30,380.08,380.09,3,"Pizza was cooked by the man.",NA,NA,4,"ldrc_0_009","1","passive_s",FALSE,0,1,"A_first"
"32",31,395.78,395.8,2,"A joke hugged the dragon.","nonsense",4.06914615631,1,"ldrc_0_009","1","active_ns",FALSE,1,1,"A_first"
"33",0,0,0.03,1,"A cousin wanted a pillow.","sense",2.18716812134,1,"ldrc_0_009","2","active_s",FALSE,1,1,"A_first"
"34",1,10.16,10.17,2,"The woman scared the paper.","nonsense",3.30098891258,1,"ldrc_0_009","2","active_ns",FALSE,1,1,"A_first"
"35",2,25.97,25.98,3,"A home was entered by the men.","sense",4.25006484985,1,"ldrc_0_009","2","passive_s",FALSE,1,1,"A_first"
"36",3,40.97,40.98,3,"The plum was tasted by a bear.","nonsense",3.34008789062,0,"ldrc_0_009","2","passive_s",FALSE,0,1,"A_first"
"37",4,53.69,53.71,2,"The barn barked at the driver.","nonsense",6.23376512527,1,"ldrc_0_009","2","active_ns",FALSE,1,1,"A_first"
"38",5,64.57,64.58,3,"A song was sung by the cowboy.","sense",5.22006201744,1,"ldrc_0_009","2","passive_s",FALSE,1,1,"A_first"
"39",6,75.24,75.25,4,"A chicken was asked by a bell.","nonsense",3.21740293503,1,"ldrc_0_009","2","passive_ns",FALSE,1,1,"A_first"
"40",7,86.91,86.92,1,"The actress watched a show.","sense",4.40409588814,1,"ldrc_0_009","2","active_s",FALSE,1,1,"A_first"
"41",8,103.03,103.04,2,"The key opened the carrot.","nonsense",4.61136102676,1,"ldrc_0_009","2","active_ns",FALSE,1,1,"A_first"
"42",9,118.89,118.9,4,"Pizza was used by a book.","nonsense",4.9883389473,1,"ldrc_0_009","2","passive_ns",FALSE,1,1,"A_first"
"43",10,128.92,128.94,1,"A raccoon scratched at the box.","nonsense",5.31397485733,0,"ldrc_0_009","2","active_s",FALSE,0,1,"A_first"
"44",11,141.14,141.16,3,"The car was chased by a dog.","sense",3.94570398331,1,"ldrc_0_009","2","passive_s",FALSE,1,1,"A_first"
"45",12,151.22,151.23,3,"A rope was pulled by the ape.","nonsense",5.73440504074,0,"ldrc_0_009","2","passive_s",FALSE,0,1,"A_first"
"46",13,161.68,161.68,4,"A horse was peeled by salt.","nonsense",5.37721681595,1,"ldrc_0_009","2","passive_ns",FALSE,1,1,"A_first"
"47",14,172.84,172.85,2,"A boat raced in the library.","nonsense",6.20813322067,1,"ldrc_0_009","2","active_ns",FALSE,1,1,"A_first"
"48",15,183.02,183.03,3,"The movie was played by dad.","sense",4.50986099243,1,"ldrc_0_009","2","passive_s",FALSE,1,1,"A_first"
"49",16,195.2,195.21,4,"The soup was caught by a ring.","nonsense",4.57489895821,1,"ldrc_0_009","2","passive_ns",FALSE,1,1,"A_first"
"50",17,212.76,212.77,2,"The sock listened to the pig.","nonsense",4.4200630188,1,"ldrc_0_009","2","active_ns",FALSE,1,1,"A_first"
"51",18,223.41,223.43,1,"A clown let go of a balloon.","sense",6.99597501755,1,"ldrc_0_009","2","active_s",FALSE,1,1,"A_first"
"52",19,237.03,237.05,4,"The boy was owned by a lamp.","nonsense",5.887155056,1,"ldrc_0_009","2","passive_ns",FALSE,1,1,"A_first"
"53",20,248.04,248.05,1,"A falcon grabbed the egg.","nonsense",5.21588587761,0,"ldrc_0_009","2","active_s",FALSE,0,1,"A_first"
"54",21,258.46,258.47,3,"The test was read by a teacher.","sense",4.86623716354,1,"ldrc_0_009","2","passive_s",FALSE,1,1,"A_first"
"55",22,274.9,274.91,1,"The mother carried a cake.","sense",4.8164639473,1,"ldrc_0_009","2","active_s",FALSE,1,1,"A_first"
"56",23,289.51,289.52,4,"A table was planted by a kid.","nonsense",4.27092909813,1,"ldrc_0_009","2","passive_ns",FALSE,1,1,"A_first"
"57",24,303.52,303.53,2,"The flag roared at a flower.","nonsense",7.0176680088,1,"ldrc_0_009","2","active_ns",FALSE,1,1,"A_first"
"58",25,319.75,319.77,1,"A girl kicked the ball.","sense",3.15111088753,1,"ldrc_0_009","2","active_s",FALSE,1,1,"A_first"
"59",26,329.89,329.9,1,"The baker stirred the spoon.","nonsense",5.88718414307,0,"ldrc_0_009","2","active_s",FALSE,0,1,"A_first"
"60",27,343.4,343.41,4,"The door was eaten by a pot.","nonsense",3.5036740303,1,"ldrc_0_009","2","passive_ns",FALSE,1,1,"A_first"
"61",28,353.98,354,2,"A goat graded the mirror.","nonsense",4.73923611641,1,"ldrc_0_009","2","active_ns",FALSE,1,1,"A_first"
"62",29,370.82,370.84,3,"Seed was pecked by a hen.","sense",7.7398660183,1,"ldrc_0_009","2","passive_s",FALSE,1,1,"A_first"
"63",30,382.44,382.46,4,"A king was chewed by a tree.","nonsense",3.8424050808,1,"ldrc_0_009","2","passive_ns",FALSE,1,1,"A_first"
"64",31,392.48,392.5,2,"The banana lost the worm.","nonsense",4.05415487289,1,"ldrc_0_009","2","active_ns",FALSE,1,1,"A_first"
"65",0,0,0.03,4,"A test was cooked by a bat.","nonsense",4.42282319069,1,"ldrc_0_013","1","passive_ns",FALSE,1,1,"A_first"
"66",1,10.89,10.91,2,"The broom grabbed the queen.","nonsense",5.22400307655,1,"ldrc_0_013","1","active_ns",FALSE,1,1,"A_first"
"67",2,21.08,21.09,3,"The shot was given by a nurse.","sense",5.26478600502,1,"ldrc_0_013","1","passive_s",FALSE,1,1,"A_first"
"68",3,36.88,36.9,2,"A shirt chopped at the tray.","nonsense",3.62478899956,1,"ldrc_0_013","1","active_ns",FALSE,1,1,"A_first"
"69",4,50.82,50.84,1,"The lion roared at the meat.","nonsense",4.56210708618,0,"ldrc_0_013","1","active_s",FALSE,0,1,"A_first"
"70",5,61.13,61.14,4,"The mirror was read by a car.","nonsense",6.90633487701,1,"ldrc_0_013","1","passive_ns",FALSE,1,1,"A_first"
"71",6,75.94,75.95,3,"The grass was moved by wind.","sense",3.73957300186,1,"ldrc_0_013","1","passive_s",FALSE,1,1,"A_first"
"72",7,87.72,87.74,3,"A hand was licked by a puppy.","sense",5.98682117462,1,"ldrc_0_013","1","passive_s",FALSE,1,1,"A_first"
"73",8,99.72,99.72,4,"A song was picked by a cat.","nonsense",5.08877420425,1,"ldrc_0_013","1","passive_ns",FALSE,1,1,"A_first"
"74",9,111.38,111.4,4,"The dog was raised by a spoon.","nonsense",3.9495370388,1,"ldrc_0_013","1","passive_ns",FALSE,1,1,"A_first"
"75",10,122.22,122.23,1,"The worker built the barn.","sense",6.43222308159,1,"ldrc_0_013","1","active_s",FALSE,1,1,"A_first"
"76",11,134.13,134.14,2,"The table climbed on a brother.","nonsense",4.63672018051,1,"ldrc_0_013","1","active_ns",FALSE,1,1,"A_first"
"77",12,146.54,146.54,2,"A game owned the doctor.","nonsense",4.58188009262,1,"ldrc_0_013","1","active_ns",FALSE,1,1,"A_first"
"78",13,158.49,158.5,3,"Tea was stirred by the aunt.","sense",5.82851004601,1,"ldrc_0_013","1","passive_s",FALSE,1,1,"A_first"
"79",14,169.83,169.84,1,"The chicken ate some seed.","sense",3.0996389389,1,"ldrc_0_013","1","active_s",FALSE,1,1,"A_first"
"80",15,179.98,179.99,1,"A woman bought a pizza.","sense",3.0928170681,1,"ldrc_0_013","1","active_s",FALSE,1,1,"A_first"
"81",16,190.27,190.28,2,"The actress chased the sugar.","nonsense",4.48362803459,1,"ldrc_0_013","1","active_ns",FALSE,1,1,"A_first"
"82",17,200.64,200.65,3,"A worm was dropped by the bird.","nonsense",3.42082715034,0,"ldrc_0_013","1","passive_s",FALSE,0,1,"A_first"
"83",18,215.75,215.76,1,"The father played the movie.","sense",3.50798296928,1,"ldrc_0_013","1","active_s",FALSE,1,1,"A_first"
"84",19,225.84,225.84,3,"A gift was opened by a boy.","sense",3.82488489151,1,"ldrc_0_013","1","passive_s",FALSE,1,1,"A_first"
"85",20,235.87,235.88,1,"The sheep escaped from the wolf.","sense",4.99685001373,1,"ldrc_0_013","1","active_s",FALSE,1,1,"A_first"
"86",21,247.77,247.79,2,"The pillow jumped at a bear.","nonsense",5.01011490822,1,"ldrc_0_013","1","active_ns",FALSE,1,1,"A_first"
"87",22,257.97,257.97,3,"A pig was scared by a fox.","sense",5.42708206177,1,"ldrc_0_013","1","passive_s",FALSE,1,1,"A_first"
"88",23,268.09,268.09,3,"A wall was marked with paint.","sense",6.35741400719,1,"ldrc_0_013","1","passive_s",FALSE,1,1,"A_first"
"89",24,280.16,280.17,1,"The cattle listened to the bell.","sense",7.56732201576,1,"ldrc_0_013","1","active_s",FALSE,1,1,"A_first"
"90",25,296.87,296.89,4,"The phone was boiled by a rat.","nonsense",4.71610212326,1,"ldrc_0_013","1","passive_ns",FALSE,1,1,"A_first"
"91",26,312.85,312.86,2,"A ring prepared for a potato.","nonsense",7.74053192139,1,"ldrc_0_013","1","active_ns",FALSE,1,1,"A_first"
"92",27,330.61,330.62,4,"Mud was dressed by air.","nonsense",4.93859410286,1,"ldrc_0_013","1","passive_ns",FALSE,1,1,"A_first"
"93",28,343.48,343.49,1,"The baby rolled in the crib.","sense",3.10002017021,1,"ldrc_0_013","1","active_s",FALSE,1,1,"A_first"
"94",29,360.32,360.33,4,"Dirt was borrowed by the chalk.","nonsense",6.51129698753,1,"ldrc_0_013","1","passive_ns",FALSE,1,1,"A_first"
"95",30,370.6,370.62,2,"A plate stained a kitten.",NA,NA,4,"ldrc_0_013","1","active_ns",FALSE,0,1,"A_first"
"96",31,381.02,381.02,4,"The hill was addressed by soap.","nonsense",5.18500804901,1,"ldrc_0_013","1","passive_ns",FALSE,1,1,"A_first"
"97",0,0,0.03,1,"The child peeled the banana.","nonsense",3.59366202354,0,"ldrc_0_013","2","active_s",FALSE,0,1,"A_first"
"98",1,10.16,10.17,2,"The store cooked on the grass.","nonsense",3.54664206505,1,"ldrc_0_013","2","active_ns",FALSE,1,1,"A_first"
"99",2,25.97,25.98,3,"Pie was made by a cousin.","sense",4.87942290306,1,"ldrc_0_013","2","passive_s",FALSE,1,1,"A_first"
"100",3,40.97,40.98,3,"A fence was jumped by a horse.","sense",6.14373207092,1,"ldrc_0_013","2","passive_s",FALSE,1,1,"A_first"
"101",4,53.69,53.71,2,"The rabbit bought the worker.","nonsense",3.28615903854,1,"ldrc_0_013","2","active_ns",FALSE,1,1,"A_first"
"102",5,64.57,64.58,3,"A joke was told by the queen.","sense",5.23651599884,1,"ldrc_0_013","2","passive_s",FALSE,1,1,"A_first"
"103",6,75.24,75.25,4,"The woman was pulled by a nut.","sense",5.20866107941,0,"ldrc_0_013","2","passive_ns",FALSE,0,1,"A_first"
"104",7,86.91,86.92,1,"A mom addressed the letter.","sense",3.86827516556,1,"ldrc_0_013","2","active_s",FALSE,1,1,"A_first"
"105",8,103.03,103.04,2,"The soup hired a cowboy.","nonsense",4.16968297958,1,"ldrc_0_013","2","active_ns",FALSE,1,1,"A_first"
"106",9,118.89,118.9,4,"Iron was chased by the bee.","sense",5.28048801422,0,"ldrc_0_013","2","passive_ns",FALSE,0,1,"A_first"
"107",10,128.92,128.94,1,"The bear tasted the apple.","nonsense",5.32439899445,0,"ldrc_0_013","2","active_s",FALSE,0,1,"A_first"
"108",11,141.14,141.16,3,"The ring was owned by a dancer.","nonsense",6.73715019226,0,"ldrc_0_013","2","passive_s",FALSE,0,1,"A_first"
"109",12,151.22,151.23,3,"The book was read by a friend.","sense",5.7586350441,1,"ldrc_0_013","2","passive_s",FALSE,1,1,"A_first"
"110",13,161.68,161.68,4,"Sugar was moved by the sock.","sense",5.68170714378,0,"ldrc_0_013","2","passive_ns",FALSE,0,1,"A_first"
"111",14,172.84,172.85,2,"A chicken shopped at a movie.","nonsense",5.48067116737,1,"ldrc_0_013","2","active_ns",FALSE,1,1,"A_first"
"112",15,183.02,183.03,3,"Clay was rolled by the artist.","sense",7.92416715622,1,"ldrc_0_013","2","passive_s",FALSE,1,1,"A_first"
"113",16,195.2,195.21,4,"A ball was prepared by glass.","nonsense",3.4961400032,1,"ldrc_0_013","2","passive_ns",FALSE,1,1,"A_first"
"114",17,212.76,212.77,2,"The money counted the singer.","nonsense",4.19352912903,1,"ldrc_0_013","2","active_ns",FALSE,1,1,"A_first"
"115",18,223.41,223.43,1,"A nurse helped a student.","sense",4.38434505463,1,"ldrc_0_013","2","active_s",FALSE,1,1,"A_first"
"116",19,237.03,237.05,4,"A wolf was found by a fan.","nonsense",4.89950203896,1,"ldrc_0_013","2","passive_ns",FALSE,1,1,"A_first"
"117",20,248.04,248.05,1,"The aunt walked on the boat.","sense",5.40430402756,1,"ldrc_0_013","2","active_s",FALSE,1,1,"A_first"
"118",21,258.46,258.47,3,"Meat was eaten by a lion.","sense",7.82369995117,1,"ldrc_0_013","2","passive_s",FALSE,1,1,"A_first"
"119",22,274.9,274.91,1,"A driver honked at the walker.","nonsense",5.43601703644,0,"ldrc_0_013","2","active_s",FALSE,0,1,"A_first"
"120",23,289.51,289.52,4,"The mouse was graded by a flag.","nonsense",4.61529707909,1,"ldrc_0_013","2","passive_ns",FALSE,1,1,"A_first"
"121",24,303.52,303.53,2,"The puppy scored a dress.","nonsense",4.80496692657,1,"ldrc_0_013","2","active_ns",FALSE,1,1,"A_first"
"122",25,319.75,319.77,1,"A tree was planted in dirt.","sense",4.70463895798,1,"ldrc_0_013","2","active_s",FALSE,1,1,"A_first"
"123",26,329.89,329.9,1,"A family baked some bread.","sense",3.43934011459,1,"ldrc_0_013","2","active_s",FALSE,1,1,"A_first"
"124",27,343.4,343.41,4,"The mat was raced by a fox.","nonsense",5.97524905205,1,"ldrc_0_013","2","passive_ns",FALSE,1,1,"A_first"
"125",28,353.98,354,2,"A candle sold the question.","nonsense",4.64999890327,1,"ldrc_0_013","2","active_ns",FALSE,1,1,"A_first"
"126",29,370.82,370.84,3,"The spoon was waved by a cook.","sense",6.33708715439,1,"ldrc_0_013","2","passive_s",FALSE,1,1,"A_first"
"127",30,382.44,382.46,4,"A card was scared by a baby.",NA,NA,4,"ldrc_0_013","2","passive_ns",FALSE,0,1,"A_first"
"128",31,392.48,392.5,2,"The fork called to a sister.",NA,NA,4,"ldrc_0_013","2","active_ns",FALSE,0,1,"A_first"
"129",0,0,0.03,2,"The house chewed on the phone.","nonsense",3.61535191536,1,"ldrc_0_013","3","active_ns",FALSE,1,1,"A_first"
"130",1,10.72,10.74,3,"The door was shut by wind.","sense",2.64405012131,1,"ldrc_0_013","3","passive_s",FALSE,1,1,"A_first"
"131",2,21.39,21.41,4,"A father was spotted by the egg.","sense",5.65161395073,0,"ldrc_0_013","3","passive_ns",FALSE,0,1,"A_first"
"132",3,38.56,38.57,1,"The clerk asked a question.","nonsense",4.8249309063,0,"ldrc_0_013","3","active_s",FALSE,0,1,"A_first"
"133",4,54.45,54.46,4,"The actor was kicked by cake.","nonsense",6.58565402031,1,"ldrc_0_013","3","passive_ns",FALSE,1,1,"A_first"
"134",5,64.83,64.84,1,"A king wished for a horse.","nonsense",7.60428595543,0,"ldrc_0_013","3","active_s",FALSE,0,1,"A_first"
"135",6,80.32,80.33,4,"The bird was told by the boat.","nonsense",3.68397212029,1,"ldrc_0_013","3","passive_ns",FALSE,1,1,"A_first"
"136",7,90.96,90.97,2,"A rope listened to the salt.","nonsense",5.59388709068,1,"ldrc_0_013","3","active_ns",FALSE,1,1,"A_first"
"137",8,106.1,106.11,2,"The tiger played a letter.","nonsense",3.11243915558,1,"ldrc_0_013","3","active_ns",FALSE,1,1,"A_first"
"138",9,116.71,116.72,1,"The mother shopped at the store.","sense",6.12844085693,1,"ldrc_0_013","3","active_s",FALSE,1,1,"A_first"
"139",10,131.58,131.59,1,"A sister hugged the dancer.","sense",4.25018191338,1,"ldrc_0_013","3","active_s",FALSE,1,1,"A_first"
"140",11,143.41,143.43,4,"Meat was watched by an ear.","nonsense",4.78328609467,1,"ldrc_0_013","3","passive_ns",FALSE,1,1,"A_first"
"141",12,154.13,154.15,4,"A worm was jumped by a dress.","nonsense",4.82645821571,1,"ldrc_0_013","3","passive_ns",FALSE,1,1,"A_first"
"142",13,164.48,164.48,3,"Money was won by a team.","sense",4.22914409637,1,"ldrc_0_013","3","passive_s",FALSE,1,1,"A_first"
"143",14,182.42,182.43,1,"The friend borrowed a book.","sense",4.32822299004,1,"ldrc_0_013","3","active_s",FALSE,1,1,"A_first"
"144",15,193.7,193.71,2,"The lamp wrote to the nurse.","nonsense",5.05134296417,1,"ldrc_0_013","3","active_ns",FALSE,1,1,"A_first"
"145",16,206.11,206.12,4,"A clown was bought by the hen.","nonsense",5.72272610664,1,"ldrc_0_013","3","passive_ns",FALSE,1,1,"A_first"
"146",17,223.68,223.69,3,"The honey was made by a bee.","sense",4.18922591209,1,"ldrc_0_013","3","passive_s",FALSE,1,1,"A_first"
"147",18,234.74,234.75,3,"Water was splashed by a bear.","sense",5.03902602196,1,"ldrc_0_013","3","passive_s",FALSE,1,1,"A_first"
"148",19,250.08,250.09,2,"The seed raised a turtle.","sense",3.95272898674,0,"ldrc_0_013","3","active_ns",FALSE,0,1,"A_first"
"149",20,260.45,260.46,3,"A barn was built by the uncle.","sense",5.91415095329,1,"ldrc_0_013","3","passive_s",FALSE,1,1,"A_first"
"150",21,270.85,270.86,1,"The cowboy cooked some pasta.","sense",4.15626311302,1,"ldrc_0_013","3","active_s",FALSE,1,1,"A_first"
"151",22,280.9,280.92,3,"A snake was caught by a girl.","sense",5.65849113464,1,"ldrc_0_013","3","passive_s",FALSE,1,1,"A_first"
"152",23,293.63,293.64,2,"The soap tasted the monkey.","nonsense",5.98085594177,1,"ldrc_0_013","3","active_ns",FALSE,1,1,"A_first"
"153",24,304.11,304.13,4,"A box was walked by a duck.","nonsense",3.72177290916,1,"ldrc_0_013","3","passive_ns",FALSE,1,1,"A_first"
"154",25,314.89,314.9,1,"A brother opened the present.","sense",4.91955184937,1,"ldrc_0_013","3","active_s",FALSE,1,1,"A_first"
"155",26,325.02,325.03,3,"Bread was picked by a boy.","nonsense",4.87465286255,0,"ldrc_0_013","3","passive_s",FALSE,0,1,"A_first"
"156",27,339.56,339.57,2,"The zebra milked the show.","nonsense",4.10258793831,1,"ldrc_0_013","3","active_ns",FALSE,1,1,"A_first"
"157",28,350.98,350.99,1,"The farmer owned a broom.","sense",4.57770395279,1,"ldrc_0_013","3","active_s",FALSE,1,1,"A_first"
"158",29,368.12,368.14,4,"A queen was lost by a pen.","nonsense",3.96273112297,1,"ldrc_0_013","3","passive_ns",FALSE,1,1,"A_first"
"159",30,380.08,380.09,3,"A hill was climbed by the bug.",NA,NA,4,"ldrc_0_013","3","passive_s",FALSE,0,1,"A_first"
"160",31,395.78,395.8,2,"A pizza dropped the cousin.","nonsense",3.85816383362,1,"ldrc_0_013","3","active_ns",FALSE,1,1,"A_first"
"161",0,0,0.03,4,"A worm was jumped by a dress.","nonsense",4.02065205574,1,"ldrc_0_018","1","passive_ns",FALSE,1,1,"A_first"
"162",1,10.89,10.91,2,"A pizza dropped the cousin.","nonsense",3.98078894615,1,"ldrc_0_018","1","active_ns",FALSE,1,1,"A_first"
"163",2,21.08,21.09,3,"A hill was climbed by the bug.","sense",5.24358797073,1,"ldrc_0_018","1","passive_s",FALSE,1,1,"A_first"
"164",3,36.88,36.9,2,"The zebra milked the show.","nonsense",4.53552699089,1,"ldrc_0_018","1","active_ns",FALSE,1,1,"A_first"
"165",4,50.82,50.84,1,"The farmer owned a broom.","sense",4.53788399696,1,"ldrc_0_018","1","active_s",FALSE,1,1,"A_first"
"166",5,61.13,61.14,4,"A queen was lost by a pen.","nonsense",3.43190908432,1,"ldrc_0_018","1","passive_ns",FALSE,1,1,"A_first"
"167",6,75.94,75.95,3,"Bread was picked by a boy.","nonsense",3.79142785072,0,"ldrc_0_018","1","passive_s",FALSE,0,1,"A_first"
"168",7,87.72,87.74,3,"A snake was caught by a girl.","sense",3.65662002563,1,"ldrc_0_018","1","passive_s",FALSE,1,1,"A_first"
"169",8,99.72,99.72,4,"A box was walked by a duck.","nonsense",4.53963112831,1,"ldrc_0_018","1","passive_ns",FALSE,1,1,"A_first"
"170",9,111.38,111.4,4,"Meat was watched by an ear.","nonsense",4.750467062,1,"ldrc_0_018","1","passive_ns",FALSE,1,1,"A_first"
"171",10,122.22,122.23,1,"A brother opened the present.","sense",3.15490102768,1,"ldrc_0_018","1","active_s",FALSE,1,1,"A_first"
"172",11,134.13,134.14,2,"The soap tasted the monkey.","nonsense",3.91642689705,1,"ldrc_0_018","1","active_ns",FALSE,1,1,"A_first"
"173",12,146.54,146.54,2,"The seed raised a turtle.","nonsense",5.17779588699,1,"ldrc_0_018","1","active_ns",FALSE,1,1,"A_first"
"174",13,158.49,158.5,3,"A barn was built by the uncle.","nonsense",4.06108689308,0,"ldrc_0_018","1","passive_s",FALSE,0,1,"A_first"
"175",14,169.83,169.84,1,"The cowboy cooked some pasta.","nonsense",5.30343294144,0,"ldrc_0_018","1","active_s",FALSE,0,1,"A_first"
"176",15,179.98,180.01,1,"A sister hugged the dancer.","nonsense",4.88187193871,0,"ldrc_0_018","1","active_s",FALSE,0,1,"A_first"
"177",16,190.27,190.28,2,"The tiger played a letter.","nonsense",3.88519906998,1,"ldrc_0_018","1","active_ns",FALSE,1,1,"A_first"
"178",17,200.64,200.65,3,"Water was splashed by a bear.","sense",3.59270787239,1,"ldrc_0_018","1","passive_s",FALSE,1,1,"A_first"
"179",18,215.75,215.76,1,"The friend borrowed a book.","nonsense",4.89090800285,0,"ldrc_0_018","1","active_s",FALSE,0,1,"A_first"
"180",19,225.84,225.84,3,"The honey was made by a bee.","sense",3.36252117157,1,"ldrc_0_018","1","passive_s",FALSE,1,1,"A_first"
"181",20,235.87,235.88,1,"The mother shopped at the store.","sense",3.59943604469,1,"ldrc_0_018","1","active_s",FALSE,1,1,"A_first"
"182",21,247.77,247.79,2,"A rope listened to the salt.","nonsense",2.90194797516,1,"ldrc_0_018","1","active_ns",FALSE,1,1,"A_first"
"183",22,257.97,257.97,3,"Money was won by a team.","nonsense",3.75370907784,0,"ldrc_0_018","1","passive_s",FALSE,0,1,"A_first"
"184",23,268.09,268.09,3,"The door was shut by wind.","nonsense",4.4592628479,0,"ldrc_0_018","1","passive_s",FALSE,0,1,"A_first"
"185",24,280.16,280.17,1,"A king wished for a horse.","sense",4.41710114479,1,"ldrc_0_018","1","active_s",FALSE,1,1,"A_first"
"186",25,296.87,296.89,4,"A clown was bought by the hen.","nonsense",5.45291399956,1,"ldrc_0_018","1","passive_ns",FALSE,1,1,"A_first"
"187",26,312.85,312.86,2,"The lamp wrote to the nurse.","nonsense",5.23516201973,1,"ldrc_0_018","1","active_ns",FALSE,1,1,"A_first"
"188",27,330.61,330.62,4,"The actor was kicked by cake.","nonsense",2.7543129921,1,"ldrc_0_018","1","passive_ns",FALSE,1,1,"A_first"
"189",28,343.48,343.49,1,"The clerk asked a question.","sense",4.40786409378,1,"ldrc_0_018","1","active_s",FALSE,1,1,"A_first"
"190",29,360.32,360.33,4,"A father was spotted by the egg.","nonsense",3.83501791954,1,"ldrc_0_018","1","passive_ns",FALSE,1,1,"A_first"
"191",30,370.6,370.62,2,"The house chewed on the phone.","nonsense",4.32074308395,1,"ldrc_0_018","1","active_ns",FALSE,1,1,"A_first"
"192",31,381.02,381.04,4,"The bird was told by the boat.","nonsense",4.86709594727,1,"ldrc_0_018","1","passive_ns",FALSE,1,1,"A_first"
"193",0,0,0.03,1,"The child peeled the banana.","sense",4.25225996971,1,"ldrc_0_018","2","active_s",FALSE,1,1,"A_first"
"194",1,10.16,10.17,2,"The store cooked on the grass.","nonsense",4.55999398232,1,"ldrc_0_018","2","active_ns",FALSE,1,1,"A_first"
"195",2,25.97,25.98,3,"Pie was made by a cousin.","nonsense",4.86490678787,0,"ldrc_0_018","2","passive_s",FALSE,0,1,"A_first"
"196",3,40.97,40.98,3,"A fence was jumped by a horse.","sense",4.40212607384,1,"ldrc_0_018","2","passive_s",FALSE,1,1,"A_first"
"197",4,53.69,53.71,2,"The rabbit bought the worker.","nonsense",4.73070001602,1,"ldrc_0_018","2","active_ns",FALSE,1,1,"A_first"
"198",5,64.57,64.58,3,"A joke was told by the queen.","sense",4.29788589478,1,"ldrc_0_018","2","passive_s",FALSE,1,1,"A_first"
"199",6,75.24,75.25,4,"The woman was pulled by a nut.","nonsense",4.2931201458,1,"ldrc_0_018","2","passive_ns",FALSE,1,1,"A_first"
"200",7,86.91,86.92,1,"A mom addressed the letter.","sense",6.72798585892,1,"ldrc_0_018","2","active_s",FALSE,1,1,"A_first"
"201",8,103.03,103.04,2,"The soup hired a cowboy.","nonsense",4.09515690804,1,"ldrc_0_018","2","active_ns",FALSE,1,1,"A_first"
"202",9,118.89,118.9,4,"Iron was chased by the bee.","nonsense",4.95916008949,1,"ldrc_0_018","2","passive_ns",FALSE,1,1,"A_first"
"203",10,128.92,128.94,1,"The bear tasted the apple.","sense",4.27372217178,1,"ldrc_0_018","2","active_s",FALSE,1,1,"A_first"
"204",11,141.14,141.16,3,"The ring was owned by a dancer.","nonsense",5.03550195694,0,"ldrc_0_018","2","passive_s",FALSE,0,1,"A_first"
"205",12,151.22,151.23,3,"The book was read by a friend.","sense",4.6221370697,1,"ldrc_0_018","2","passive_s",FALSE,1,1,"A_first"
"206",13,161.68,161.7,4,"Sugar was moved by the sock.","nonsense",3.88345098495,1,"ldrc_0_018","2","passive_ns",FALSE,1,1,"A_first"
"207",14,172.84,172.85,2,"A chicken shopped at a movie.","nonsense",3.78413105011,1,"ldrc_0_018","2","active_ns",FALSE,1,1,"A_first"
"208",15,183.02,183.03,3,"Clay was rolled by the artist.","sense",6.11369585991,1,"ldrc_0_018","2","passive_s",FALSE,1,1,"A_first"
"209",16,195.2,195.21,4,"A ball was prepared by glass.","nonsense",6.44170880318,1,"ldrc_0_018","2","passive_ns",FALSE,1,1,"A_first"
"210",17,212.76,212.77,2,"The money counted the singer.","nonsense",5.88694691658,1,"ldrc_0_018","2","active_ns",FALSE,1,1,"A_first"
"211",18,223.41,223.43,1,"A nurse helped a student.","sense",2.50257492065,1,"ldrc_0_018","2","active_s",FALSE,1,1,"A_first"
"212",19,237.03,237.05,4,"A wolf was found by a fan.","nonsense",5.93194890022,1,"ldrc_0_018","2","passive_ns",FALSE,1,1,"A_first"
"213",20,248.04,248.05,1,"The aunt walked on the boat.","nonsense",4.76977181435,0,"ldrc_0_018","2","active_s",FALSE,0,1,"A_first"
"214",21,258.46,258.47,3,"Meat was eaten by a lion.","sense",3.94310593605,1,"ldrc_0_018","2","passive_s",FALSE,1,1,"A_first"
"215",22,274.9,274.91,1,"A driver honked at the walker.","sense",5.74052500725,1,"ldrc_0_018","2","active_s",FALSE,1,1,"A_first"
"216",23,289.51,289.52,4,"The mouse was graded by a flag.","nonsense",5.06497812271,1,"ldrc_0_018","2","passive_ns",FALSE,1,1,"A_first"
"217",24,303.52,303.53,2,"The puppy scored a dress.","nonsense",4.17353010178,1,"ldrc_0_018","2","active_ns",FALSE,1,1,"A_first"
"218",25,319.75,319.77,1,"A tree was planted in dirt.","sense",3.4129960537,1,"ldrc_0_018","2","active_s",FALSE,1,1,"A_first"
"219",26,329.89,329.9,1,"A family baked some bread.","nonsense",3.9988720417,0,"ldrc_0_018","2","active_s",FALSE,0,1,"A_first"
"220",27,343.4,343.41,4,"The mat was raced by a fox.","nonsense",6.54967784882,1,"ldrc_0_018","2","passive_ns",FALSE,1,1,"A_first"
"221",28,353.98,354,2,"A candle sold the question.","nonsense",4.58823490143,1,"ldrc_0_018","2","active_ns",FALSE,1,1,"A_first"
"222",29,370.82,370.84,3,"The spoon was waved by a cook.","nonsense",4.63744902611,0,"ldrc_0_018","2","passive_s",FALSE,0,1,"A_first"
"223",30,382.44,382.46,4,"A card was scared by a baby.","nonsense",5.14040994644,1,"ldrc_0_018","2","passive_ns",FALSE,1,1,"A_first"
"224",31,392.48,392.49,2,"The fork called to a sister.","nonsense",3.51524591446,1,"ldrc_0_018","2","active_ns",FALSE,1,1,"A_first"
"225",0,0,0.03,2,"A plate stained a kitten.","nonsense",3.31383299828,1,"ldrc_0_018","3","active_ns",FALSE,1,1,"A_first"
"226",1,10.72,10.74,3,"A wall was marked with paint.","nonsense",4.64974498749,0,"ldrc_0_018","3","passive_s",FALSE,0,1,"A_first"
"227",2,21.39,21.41,4,"The hill was addressed by soap.","nonsense",5.53932595253,1,"ldrc_0_018","3","passive_ns",FALSE,1,1,"A_first"
"228",3,38.56,38.57,1,"The baby rolled in the crib.","sense",3.21256899834,1,"ldrc_0_018","3","active_s",FALSE,1,1,"A_first"
"229",4,54.45,54.46,4,"Dirt was borrowed by the chalk.","nonsense",5.35218405724,1,"ldrc_0_018","3","passive_ns",FALSE,1,1,"A_first"
"230",5,64.83,64.84,1,"The cattle listened to the bell.","sense",5.20692896843,1,"ldrc_0_018","3","active_s",FALSE,1,1,"A_first"
"231",6,80.32,80.33,4,"Mud was dressed by air.","nonsense",6.12363576889,1,"ldrc_0_018","3","passive_ns",FALSE,1,1,"A_first"
"232",7,90.96,90.97,2,"A ring prepared for a potato.","nonsense",4.56416797638,1,"ldrc_0_018","3","active_ns",FALSE,1,1,"A_first"
"233",8,106.1,106.11,2,"A game owned the doctor.","nonsense",5.02999377251,1,"ldrc_0_018","3","active_ns",FALSE,1,1,"A_first"
"234",9,116.71,116.72,1,"The sheep escaped from the wolf.","sense",4.41197085381,1,"ldrc_0_018","3","active_s",FALSE,1,1,"A_first"
"235",10,131.58,131.59,1,"A woman bought a pizza.","sense",2.56458997726,1,"ldrc_0_018","3","active_s",FALSE,1,1,"A_first"
"236",11,143.41,143.43,4,"The phone was boiled by a rat.","nonsense",5.42469096184,1,"ldrc_0_018","3","passive_ns",FALSE,1,1,"A_first"
"237",12,154.13,154.15,4,"The dog was raised by a spoon.","nonsense",4.13997817039,1,"ldrc_0_018","3","passive_ns",FALSE,1,1,"A_first"
"238",13,164.48,164.48,3,"A pig was scared by a fox.","sense",3.37774014473,1,"ldrc_0_018","3","passive_s",FALSE,1,1,"A_first"
"239",14,182.42,182.43,1,"The chicken ate some seed.","sense",2.9135119915,1,"ldrc_0_018","3","active_s",FALSE,1,1,"A_first"
"240",15,193.7,193.71,2,"The pillow jumped at a bear.","nonsense",3.97982382774,1,"ldrc_0_018","3","active_ns",FALSE,1,1,"A_first"
"241",16,206.11,206.12,4,"A song was picked by a cat.","nonsense",4.04910302162,1,"ldrc_0_018","3","passive_ns",FALSE,1,1,"A_first"
"242",17,223.68,223.69,3,"The grass was moved by wind.","sense",4.39264822006,1,"ldrc_0_018","3","passive_s",FALSE,1,1,"A_first"
"243",18,234.74,234.75,3,"A gift was opened by a boy.","sense",3.01441979408,1,"ldrc_0_018","3","passive_s",FALSE,1,1,"A_first"
"244",19,250.08,250.09,2,"The actress chased the sugar.","nonsense",4.73030900955,1,"ldrc_0_018","3","active_ns",FALSE,1,1,"A_first"
"245",20,260.45,260.46,3,"Tea was stirred by the aunt.","sense",6.14779305458,1,"ldrc_0_018","3","passive_s",FALSE,1,1,"A_first"
"246",21,270.85,270.86,1,"The father played the movie.","sense",4.26067590714,1,"ldrc_0_018","3","active_s",FALSE,1,1,"A_first"
"247",22,280.9,280.92,3,"A hand was licked by a puppy.","sense",5.72388601303,1,"ldrc_0_018","3","passive_s",FALSE,1,1,"A_first"
"248",23,293.63,293.64,2,"The table climbed on a brother.","nonsense",4.50828504562,1,"ldrc_0_018","3","active_ns",FALSE,1,1,"A_first"
"249",24,304.11,304.13,4,"The mirror was read by a car.","nonsense",8.10701799393,1,"ldrc_0_018","3","passive_ns",FALSE,1,1,"A_first"
"250",25,314.89,314.9,1,"The worker built the barn.","nonsense",4.80529594421,0,"ldrc_0_018","3","active_s",FALSE,0,1,"A_first"
"251",26,325.02,325.03,3,"A worm was dropped by the bird.","sense",6.05504608154,1,"ldrc_0_018","3","passive_s",FALSE,1,1,"A_first"
"252",27,339.56,339.57,2,"The broom grabbed the queen.","nonsense",3.82415103912,1,"ldrc_0_018","3","active_ns",FALSE,1,1,"A_first"
"253",28,350.98,350.99,1,"The lion roared at the meat.","sense",5.35701107979,1,"ldrc_0_018","3","active_s",FALSE,1,1,"A_first"
"254",29,368.12,368.14,4,"A test was cooked by a bat.","nonsense",6.78019309044,1,"ldrc_0_018","3","passive_ns",FALSE,1,1,"A_first"
"255",30,380.08,380.09,3,"The shot was given by a nurse.","sense",3.68561506271,1,"ldrc_0_018","3","passive_s",FALSE,1,1,"A_first"
"256",31,395.78,395.8,2,"A shirt chopped at the tray.","nonsense",4.55665397644,1,"ldrc_0_018","3","active_ns",FALSE,1,1,"A_first"
"257",0,0,0.03,4,"A test was cooked by a bat.","nonsense",3.74194121361,1,"ldrc_0_025","1","passive_ns",FALSE,1,1,"A_first"
"259",1,10.89,10.91,2,"The broom grabbed the queen.","nonsense",3.00503492355,1,"ldrc_0_025","1","active_ns",FALSE,1,1,"A_first"
"267",2,21.08,21.09,3,"The shot was given by a nurse.","sense",2.59378910065,1,"ldrc_0_025","1","passive_s",FALSE,1,1,"A_first"
"268",3,36.88,36.9,2,"A shirt chopped at the tray.","sense",5.94875311852,2,"ldrc_0_025","1","active_ns",FALSE,0,1,"A_first"
"273",4,50.82,50.84,1,"The lion roared at the meat.","nonsense",2.55499386787,0,"ldrc_0_025","1","active_s",FALSE,0,1,"A_first"
"275",5,61.13,61.14,4,"The mirror was read by a car.","nonsense",3.66634893417,1,"ldrc_0_025","1","passive_ns",FALSE,1,1,"A_first"
"276",6,75.94,75.95,3,"The grass was moved by wind.","nonsense",5.50343894958,2,"ldrc_0_025","1","passive_s",FALSE,0,1,"A_first"
"278",7,87.72,87.74,3,"A hand was licked by a puppy.","sense",2.42645692825,1,"ldrc_0_025","1","passive_s",FALSE,1,1,"A_first"
"279",8,99.72,99.73,4,"A song was picked by a cat.","sense",3.72852897644,2,"ldrc_0_025","1","passive_ns",FALSE,0,1,"A_first"
"285",9,111.38,111.4,4,"The dog was raised by a spoon.","sense",1.76966619492,2,"ldrc_0_025","1","passive_ns",FALSE,0,1,"A_first"
"293",10,122.22,122.23,1,"The worker built the barn.","sense",2.08501911163,1,"ldrc_0_025","1","active_s",FALSE,1,1,"A_first"
"295",11,134.13,134.14,2,"The table climbed on a brother.","nonsense",2.89844298363,1,"ldrc_0_025","1","active_ns",FALSE,1,1,"A_first"
"296",12,146.54,146.54,2,"A game owned the doctor.","sense",4.42773509026,2,"ldrc_0_025","1","active_ns",FALSE,0,1,"A_first"
"304",13,158.49,158.5,3,"Tea was stirred by the aunt.","nonsense",4.58525705338,0,"ldrc_0_025","1","passive_s",FALSE,0,1,"A_first"
"306",14,169.83,169.84,1,"The chicken ate some seed.","sense",2.89168000221,1,"ldrc_0_025","1","active_s",FALSE,1,1,"A_first"
"308",15,179.98,179.99,1,"A woman bought a pizza.","sense",3.7416870594,1,"ldrc_0_025","1","active_s",FALSE,1,1,"A_first"
"309",16,190.27,190.3,2,"The actress chased the sugar.","nonsense",4.2137389183,1,"ldrc_0_025","1","active_ns",FALSE,1,1,"A_first"
"315",17,200.64,200.65,3,"A worm was dropped by the bird.","sense",6.13282799721,1,"ldrc_0_025","1","passive_s",FALSE,1,1,"A_first"
"318",18,215.75,215.76,1,"The father played the movie.","sense",1.93288588524,1,"ldrc_0_025","1","active_s",FALSE,1,1,"A_first"
"319",19,225.84,225.84,3,"A gift was opened by a boy.","nonsense",2.47056007385,2,"ldrc_0_025","1","passive_s",FALSE,0,1,"A_first"
"324",20,235.87,235.88,1,"The sheep escaped from the wolf.","sense",2.40654087067,1,"ldrc_0_025","1","active_s",FALSE,1,1,"A_first"
"326",21,247.77,247.79,2,"The pillow jumped at a bear.","nonsense",3.16497993469,1,"ldrc_0_025","1","active_ns",FALSE,1,1,"A_first"
"335",22,257.97,257.99,3,"A pig was scared by a fox.","nonsense",3.55817604065,2,"ldrc_0_025","1","passive_s",FALSE,0,1,"A_first"
"340",23,268.09,268.09,3,"A wall was marked with paint.","nonsense",2.91622281075,0,"ldrc_0_025","1","passive_s",FALSE,0,1,"A_first"
"342",24,280.16,280.17,1,"The cattle listened to the bell.","nonsense",6.1991789341,0,"ldrc_0_025","1","active_s",FALSE,0,1,"A_first"
"343",25,296.87,296.89,4,"The phone was boiled by a rat.","nonsense",3.78295898438,1,"ldrc_0_025","1","passive_ns",FALSE,1,1,"A_first"
"345",26,312.85,312.86,2,"A ring prepared for a potato.","nonsense",5.41926002502,1,"ldrc_0_025","1","active_ns",FALSE,1,1,"A_first"
"352",27,330.61,330.62,4,"Mud was dressed by air.","nonsense",6.77645397186,1,"ldrc_0_025","1","passive_ns",FALSE,1,1,"A_first"
"353",28,343.48,343.49,1,"The baby rolled in the crib.",NA,NA,4,"ldrc_0_025","1","active_s",FALSE,0,1,"A_first"
"354",29,360.32,360.33,4,"Dirt was borrowed by the chalk.","nonsense",4.4801440239,1,"ldrc_0_025","1","passive_ns",FALSE,1,1,"A_first"
"355",30,370.6,370.6,2,"A plate stained a kitten.","nonsense",3.0834710598,1,"ldrc_0_025","1","active_ns",FALSE,1,1,"A_first"
"357",31,381.02,381.04,4,"The hill was addressed by soap.","nonsense",2.92823886871,1,"ldrc_0_025","1","passive_ns",FALSE,1,1,"A_first"
"359",0,0,0.03,1,"A cousin wanted a pillow.","sense",3.47487401962,1,"ldrc_0_057","1","active_s",FALSE,1,1,"A_first"
"361",1,10.16,10.17,2,"The woman scared the paper.","nonsense",3.89670610428,1,"ldrc_0_057","1","active_ns",FALSE,1,1,"A_first"
"362",2,25.97,25.98,3,"A home was entered by the men.","sense",5.76491117477,1,"ldrc_0_057","1","passive_s",FALSE,1,1,"A_first"
"363",3,40.97,40.98,3,"The plum was tasted by a bear.","nonsense",4.72799611092,0,"ldrc_0_057","1","passive_s",FALSE,0,1,"A_first"
"364",4,53.69,53.71,2,"The barn barked at the driver.","nonsense",5.22344493866,1,"ldrc_0_057","1","active_ns",FALSE,1,1,"A_first"
"365",5,64.57,64.58,3,"A song was sung by the cowboy.","sense",4.4065489769,1,"ldrc_0_057","1","passive_s",FALSE,1,1,"A_first"
"366",6,75.24,75.25,4,"A chicken was asked by a bell.","nonsense",4.53183913231,1,"ldrc_0_057","1","passive_ns",FALSE,1,1,"A_first"
"367",7,86.91,86.92,1,"The actress watched a show.",NA,NA,4,"ldrc_0_057","1","active_s",FALSE,0,1,"A_first"
"368",8,103.03,103.04,2,"The key opened the carrot.","nonsense",3.61475205421,1,"ldrc_0_057","1","active_ns",FALSE,1,1,"A_first"
"369",9,118.89,118.9,4,"Pizza was used by a book.","nonsense",3.75660705566,1,"ldrc_0_057","1","passive_ns",FALSE,1,1,"A_first"
"370",10,128.92,128.94,1,"A raccoon scratched at the box.","sense",3.06155920029,1,"ldrc_0_057","1","active_s",FALSE,1,1,"A_first"
"371",11,141.14,141.16,3,"The car was chased by a dog.","nonsense",5.91121912003,2,"ldrc_0_057","1","passive_s",FALSE,0,1,"A_first"
"374",12,151.22,151.23,3,"A rope was pulled by the ape.","sense",4.68747997284,1,"ldrc_0_057","1","passive_s",FALSE,1,1,"A_first"
"375",13,161.68,161.68,4,"A horse was peeled by salt.","nonsense",3.54159617424,1,"ldrc_0_057","1","passive_ns",FALSE,1,1,"A_first"
"376",14,172.84,172.85,2,"A boat raced in the library.","nonsense",5.18268299103,1,"ldrc_0_057","1","active_ns",FALSE,1,1,"A_first"
"377",15,183.02,183.03,3,"The movie was played by dad.","sense",3.29010987282,1,"ldrc_0_057","1","passive_s",FALSE,1,1,"A_first"
"378",16,195.2,195.21,4,"The soup was caught by a ring.","nonsense",3.48924589157,1,"ldrc_0_057","1","passive_ns",FALSE,1,1,"A_first"
"379",17,212.76,212.77,2,"The sock listened to the pig.","nonsense",4.32137703896,1,"ldrc_0_057","1","active_ns",FALSE,1,1,"A_first"
"380",18,223.41,223.43,1,"A clown let go of a balloon.","sense",2.71222996712,1,"ldrc_0_057","1","active_s",FALSE,1,1,"A_first"
"381",19,237.03,237.05,4,"The boy was owned by a lamp.","nonsense",3.30244803429,1,"ldrc_0_057","1","passive_ns",FALSE,1,1,"A_first"
"382",20,248.04,248.05,1,"A falcon grabbed the egg.","sense",4.1522758007,1,"ldrc_0_057","1","active_s",FALSE,1,1,"A_first"
"383",21,258.46,258.47,3,"The test was read by a teacher.","sense",4.38566017151,1,"ldrc_0_057","1","passive_s",FALSE,1,1,"A_first"
"384",22,274.9,274.91,1,"The mother carried a cake.","sense",4.32192707062,1,"ldrc_0_057","1","active_s",FALSE,1,1,"A_first"
"385",23,289.51,289.52,4,"A table was planted by a kid.","nonsense",5.51138997078,1,"ldrc_0_057","1","passive_ns",FALSE,1,1,"A_first"
"386",24,303.52,303.53,2,"The flag roared at a flower.","nonsense",5.19011998177,1,"ldrc_0_057","1","active_ns",FALSE,1,1,"A_first"
"387",25,319.75,319.77,1,"A girl kicked the ball.","sense",5.32944321632,1,"ldrc_0_057","1","active_s",FALSE,1,1,"A_first"
"388",26,329.89,329.9,1,"The baker stirred the spoon.",NA,NA,4,"ldrc_0_057","1","active_s",FALSE,0,1,"A_first"
"389",27,343.4,343.41,4,"The door was eaten by a pot.","nonsense",2.59596896172,1,"ldrc_0_057","1","passive_ns",FALSE,1,1,"A_first"
"390",28,353.98,354,2,"A goat graded the mirror.","nonsense",3.82467508316,1,"ldrc_0_057","1","active_ns",FALSE,1,1,"A_first"
"391",29,370.82,370.84,3,"Seed was pecked by a hen.","sense",7.27193784714,1,"ldrc_0_057","1","passive_s",FALSE,1,1,"A_first"
"392",30,382.44,382.46,4,"A king was chewed by a tree.","nonsense",4.46870803833,1,"ldrc_0_057","1","passive_ns",FALSE,1,1,"A_first"
"393",31,392.48,392.5,2,"The banana lost the worm.","nonsense",4.42247509956,1,"ldrc_0_057","1","active_ns",FALSE,1,1,"A_first"
"394",0,0,0.03,4,"Pasta was waved by a fish.","nonsense",3.6338160038,1,"ldrc_0_057","3","passive_ns",FALSE,1,1,"A_first"
"395",1,10.89,10.91,2,"A joke hugged the dragon.","nonsense",2.52194499969,1,"ldrc_0_057","3","active_ns",FALSE,1,1,"A_first"
"396",2,21.08,21.09,3,"A phone was used by a doctor.","sense",1.95868611336,1,"ldrc_0_057","3","passive_s",FALSE,1,1,"A_first"
"397",3,36.88,36.9,2,"The ear dressed a student.","nonsense",4.81265497208,2,"ldrc_0_057","3","active_ns",FALSE,0,1,"A_first"
"399",4,50.82,50.84,1,"A fly entered the house.","sense",4.69500613213,1,"ldrc_0_057","3","active_s",FALSE,1,1,"A_first"
"400",5,61.13,61.14,4,"A cup was cut by the pillow.","sense",3.28205609322,2,"ldrc_0_057","3","passive_ns",FALSE,0,1,"A_first"
"404",6,75.94,75.95,3,"Pizza was cooked by the man.","sense",3.01622891426,1,"ldrc_0_057","3","passive_s",FALSE,1,1,"A_first"
"405",7,87.72,87.74,3,"The show was seen by a child.","sense",3.07946586609,1,"ldrc_0_057","3","passive_s",FALSE,1,1,"A_first"
"406",8,99.72,99.73,4,"A chair was tasted by a frame.","nonsense",3.63242697716,1,"ldrc_0_057","3","passive_ns",FALSE,1,1,"A_first"
"407",9,111.38,111.4,4,"Bread was scratched by a tray.","nonsense",3.66145086288,1,"ldrc_0_057","3","passive_ns",FALSE,1,1,"A_first"
"408",10,122.22,122.23,1,"A mouse chewed on the cheese.","sense",3.44891405106,1,"ldrc_0_057","3","active_s",FALSE,1,1,"A_first"
"409",11,134.13,134.14,2,"The couch sang to the duck.","nonsense",4.43829894066,1,"ldrc_0_057","3","active_ns",FALSE,1,1,"A_first"
"410",12,146.54,146.54,2,"The iron borrowed a teacher.","nonsense",3.95560598373,1,"ldrc_0_057","3","active_ns",FALSE,1,1,"A_first"
"411",13,158.49,158.5,3,"A cat was saved by a king.","sense",3.41603398323,1,"ldrc_0_057","3","passive_s",FALSE,1,1,"A_first"
"412",14,169.83,169.85,1,"The queen planted a flower.","sense",2.35260605812,1,"ldrc_0_057","3","active_s",FALSE,1,1,"A_first"
"414",15,179.98,179.99,1,"The uncle put sugar in the tea.","sense",2.91838002205,1,"ldrc_0_057","3","active_s",FALSE,1,1,"A_first"
"415",16,190.27,190.28,2,"A basement won the family.","nonsense",3.16310310364,1,"ldrc_0_057","3","active_ns",FALSE,1,1,"A_first"
"416",17,200.64,200.65,3,"Soup was served by a woman.","sense",3.87345695496,1,"ldrc_0_057","3","passive_s",FALSE,1,1,"A_first"
"417",18,215.75,215.76,1,"A bird dropped the worm.","sense",3.66463303566,1,"ldrc_0_057","3","active_s",FALSE,1,1,"A_first"
"418",19,225.84,225.84,3,"A rug was rolled by the actor.","nonsense",6.11654686928,0,"ldrc_0_057","3","passive_s",FALSE,0,1,"A_first"
"419",20,235.87,235.88,1,"The boy cleared off the table.","sense",3.39037299156,1,"ldrc_0_057","3","active_s",FALSE,1,1,"A_first"
"420",21,247.77,247.79,2,"A hen carried the dancer.","nonsense",8.24677300453,1,"ldrc_0_057","3","active_ns",FALSE,1,1,"A_first"
"423",22,257.97,257.99,3,"The lamp was bought by the sister.","sense",3.87702798843,1,"ldrc_0_057","3","passive_s",FALSE,1,1,"A_first"
"425",23,268.09,268.11,3,"The shirt was stained by mud.","sense",4.63440394402,1,"ldrc_0_057","3","passive_s",FALSE,1,1,"A_first"
"426",24,280.16,280.17,1,"A tiger scared the zebra.","sense",3.80380487442,1,"ldrc_0_057","3","active_s",FALSE,1,1,"A_first"
"427",25,296.87,296.89,4,"The girl was told by a fork.","nonsense",3.25662684441,1,"ldrc_0_057","3","passive_ns",FALSE,1,1,"A_first"
"428",26,312.85,312.86,2,"A fence walked to the mother.","nonsense",3.75481295586,1,"ldrc_0_057","3","active_ns",FALSE,1,1,"A_first"
"429",27,330.61,330.62,4,"A rope was sold by the frog.","nonsense",3.27497696877,1,"ldrc_0_057","3","passive_ns",FALSE,1,1,"A_first"
"430",28,343.48,343.49,1,"The banker counted the money.","sense",2.60933899879,1,"ldrc_0_057","3","active_s",FALSE,1,1,"A_first"
"431",29,360.32,360.33,4,"Pie was raised by the letter.","nonsense",3.98065495491,1,"ldrc_0_057","3","passive_ns",FALSE,1,1,"A_first"
"433",30,370.6,370.62,2,"The snake asked for the father.","nonsense",1.83236193657,1,"ldrc_0_057","3","active_ns",FALSE,1,1,"A_first"
"434",31,381.02,381.04,4,"Fire was licked by a banana.","nonsense",4.86074900627,1,"ldrc_0_057","3","passive_ns",FALSE,1,1,"A_first"
"436",0,0,0.03,2,"The money counted the singer.",NA,NA,4,"ldrc_1_001","1","active_ns",FALSE,0,1,"A_first"
"437",1,10.72,10.74,3,"Clay was rolled by the artist.","sense",3.63546705246,1,"ldrc_1_001","1","passive_s",FALSE,1,1,"A_first"
"438",2,21.39,21.41,4,"The mat was raced by a fox.","nonsense",3.39470100403,1,"ldrc_1_001","1","passive_ns",FALSE,1,1,"A_first"
"439",3,38.56,38.57,1,"The aunt walked on the boat.","nonsense",6.99911499023,0,"ldrc_1_001","1","active_s",FALSE,0,1,"A_first"
"440",4,54.45,54.46,4,"A ball was prepared by glass.","nonsense",5.61978888512,1,"ldrc_1_001","1","passive_ns",FALSE,1,1,"A_first"
"441",5,64.83,64.84,1,"A driver honked at the walker.","sense",6.08946704865,1,"ldrc_1_001","1","active_s",FALSE,1,1,"A_first"
"442",6,80.32,80.33,4,"Iron was chased by the bee.","nonsense",7.35534214973,1,"ldrc_1_001","1","passive_ns",FALSE,1,1,"A_first"
"443",7,90.96,90.97,2,"The rabbit bought the worker.","nonsense",4.79707980156,1,"ldrc_1_001","1","active_ns",FALSE,1,1,"A_first"
"444",8,106.1,106.11,2,"A candle sold the question.","nonsense",5.78496313095,1,"ldrc_1_001","1","active_ns",FALSE,1,1,"A_first"
"445",9,116.71,116.72,1,"A mom addressed the letter.","sense",4.38476204872,1,"ldrc_1_001","1","active_s",FALSE,1,1,"A_first"
"446",10,131.58,131.59,1,"A family baked some bread.","nonsense",4.470307827,2,"ldrc_1_001","1","active_s",FALSE,0,1,"A_first"
"448",11,143.41,143.43,4,"The woman was pulled by a nut.","nonsense",5.66152906418,1,"ldrc_1_001","1","passive_ns",FALSE,1,1,"A_first"
"449",12,154.13,154.15,4,"Sugar was moved by the sock.","nonsense",4.30673408508,1,"ldrc_1_001","1","passive_ns",FALSE,1,1,"A_first"
"450",13,164.48,164.48,3,"The ring was owned by a dancer.","sense",7.38551902771,1,"ldrc_1_001","1","passive_s",FALSE,1,1,"A_first"
"451",14,182.42,182.43,1,"The child peeled the banana.","sense",4.66222000122,1,"ldrc_1_001","1","active_s",FALSE,1,1,"A_first"
"452",15,193.7,193.71,2,"The fork called to a sister.","nonsense",4.5826318264,1,"ldrc_1_001","1","active_ns",FALSE,1,1,"A_first"
"453",16,206.11,206.12,4,"A card was scared by a baby.","nonsense",4.02682995796,1,"ldrc_1_001","1","passive_ns",FALSE,1,1,"A_first"
"454",17,223.68,223.69,3,"A fence was jumped by a horse.","sense",5.93967700005,1,"ldrc_1_001","1","passive_s",FALSE,1,1,"A_first"
"455",18,234.74,234.75,3,"Pie was made by a cousin.","nonsense",4.47628378868,2,"ldrc_1_001","1","passive_s",FALSE,0,1,"A_first"
"457",19,250.08,250.09,2,"The store cooked on the grass.","nonsense",4.90707302094,1,"ldrc_1_001","1","active_ns",FALSE,1,1,"A_first"
"458",20,260.45,260.46,3,"The spoon was waved by a cook.","sense",5.71856689453,1,"ldrc_1_001","1","passive_s",FALSE,1,1,"A_first"
"459",21,270.85,270.86,1,"A tree was planted in dirt.","sense",4.75072598457,1,"ldrc_1_001","1","active_s",FALSE,1,1,"A_first"
"460",22,280.9,280.92,3,"A joke was told by the queen.","sense",4.15667796135,1,"ldrc_1_001","1","passive_s",FALSE,1,1,"A_first"
"461",23,293.63,293.64,2,"The soup hired a cowboy.","nonsense",4.09828710556,1,"ldrc_1_001","1","active_ns",FALSE,1,1,"A_first"
"462",24,304.11,304.13,4,"The mouse was graded by a flag.","nonsense",6.02590489388,1,"ldrc_1_001","1","passive_ns",FALSE,1,1,"A_first"
"463",25,314.89,314.9,1,"The bear tasted the apple.","sense",5.91015696526,1,"ldrc_1_001","1","active_s",FALSE,1,1,"A_first"
"464",26,325.02,325.03,3,"Meat was eaten by a lion.","sense",5.68287420273,1,"ldrc_1_001","1","passive_s",FALSE,1,1,"A_first"
"465",27,339.56,339.57,2,"The puppy scored a dress.","nonsense",3.64398002625,1,"ldrc_1_001","1","active_ns",FALSE,1,1,"A_first"
"466",28,350.98,350.99,1,"A nurse helped a student.","sense",4.81394290924,1,"ldrc_1_001","1","active_s",FALSE,1,1,"A_first"
"467",29,368.12,368.13,4,"A wolf was found by a fan.","nonsense",6.08716702461,1,"ldrc_1_001","1","passive_ns",FALSE,1,1,"A_first"
"468",30,380.08,380.09,3,"The book was read by a friend.","sense",4.26257586479,1,"ldrc_1_001","1","passive_s",FALSE,1,1,"A_first"
"469",31,395.78,395.8,2,"A chicken shopped at a movie.",NA,NA,4,"ldrc_1_001","1","active_ns",FALSE,0,1,"A_first"
"470",0,0,0.03,4,"A worm was jumped by a dress.","nonsense",3.62857413292,1,"ldrc_1_001","2","passive_ns",FALSE,1,1,"A_first"
"471",1,10.89,10.91,2,"A pizza dropped the cousin.","nonsense",5.48180603981,1,"ldrc_1_001","2","active_ns",FALSE,1,1,"A_first"
"472",2,21.08,21.09,3,"A hill was climbed by the bug.",NA,NA,4,"ldrc_1_001","2","passive_s",FALSE,0,1,"A_first"
"473",3,36.88,36.9,2,"The zebra milked the show.","nonsense",4.65260386467,1,"ldrc_1_001","2","active_ns",FALSE,1,1,"A_first"
"474",4,50.82,50.84,1,"The farmer owned a broom.","sense",3.30885601044,1,"ldrc_1_001","2","active_s",FALSE,1,1,"A_first"
"475",5,61.13,61.14,4,"A queen was lost by a pen.","nonsense",6.20807409286,1,"ldrc_1_001","2","passive_ns",FALSE,1,1,"A_first"
"476",6,75.94,75.95,3,"Bread was picked by a boy.","sense",4.78329205513,1,"ldrc_1_001","2","passive_s",FALSE,1,1,"A_first"
"477",7,87.72,87.74,3,"A snake was caught by a girl.","nonsense",3.97639107704,0,"ldrc_1_001","2","passive_s",FALSE,0,1,"A_first"
"478",8,99.72,99.72,4,"A box was walked by a duck.","nonsense",5.4105758667,1,"ldrc_1_001","2","passive_ns",FALSE,1,1,"A_first"
"479",9,111.38,111.4,4,"Meat was watched by an ear.","nonsense",4.60158610344,1,"ldrc_1_001","2","passive_ns",FALSE,1,1,"A_first"
"480",10,122.22,122.23,1,"A brother opened the present.","sense",4.63700318336,1,"ldrc_1_001","2","active_s",FALSE,1,1,"A_first"
"481",11,134.13,134.14,2,"The soap tasted the monkey.","nonsense",5.33747720718,1,"ldrc_1_001","2","active_ns",FALSE,1,1,"A_first"
"482",12,146.54,146.54,2,"The seed raised a turtle.","nonsense",4.84555196762,1,"ldrc_1_001","2","active_ns",FALSE,1,1,"A_first"
"483",13,158.49,158.5,3,"A barn was built by the uncle.","nonsense",5.95233607292,0,"ldrc_1_001","2","passive_s",FALSE,0,1,"A_first"
"484",14,169.83,169.84,1,"The cowboy cooked some pasta.","sense",3.91950011253,1,"ldrc_1_001","2","active_s",FALSE,1,1,"A_first"
"485",15,179.98,179.99,1,"A sister hugged the dancer.","sense",3.25759410858,1,"ldrc_1_001","2","active_s",FALSE,1,1,"A_first"
"486",16,190.27,190.28,2,"The tiger played a letter.","nonsense",5.01831293106,1,"ldrc_1_001","2","active_ns",FALSE,1,1,"A_first"
"487",17,200.64,200.65,3,"Water was splashed by a bear.","sense",6.4117629528,1,"ldrc_1_001","2","passive_s",FALSE,1,1,"A_first"
"488",18,215.75,215.76,1,"The friend borrowed a book.","sense",3.50587797165,1,"ldrc_1_001","2","active_s",FALSE,1,1,"A_first"
"489",19,225.84,225.84,3,"The honey was made by a bee.","sense",4.19849705696,1,"ldrc_1_001","2","passive_s",FALSE,1,1,"A_first"
"490",20,235.87,235.88,1,"The mother shopped at the store.","sense",4.55759882927,1,"ldrc_1_001","2","active_s",FALSE,1,1,"A_first"
"491",21,247.77,247.79,2,"A rope listened to the salt.","nonsense",4.93800902367,1,"ldrc_1_001","2","active_ns",FALSE,1,1,"A_first"
"492",22,257.97,257.97,3,"Money was won by a team.","nonsense",4.33182215691,0,"ldrc_1_001","2","passive_s",FALSE,0,1,"A_first"
"493",23,268.09,268.09,3,"The door was shut by wind.","nonsense",5.2072930336,0,"ldrc_1_001","2","passive_s",FALSE,0,1,"A_first"
"494",24,280.16,280.17,1,"A king wished for a horse.","sense",4.25197601318,1,"ldrc_1_001","2","active_s",FALSE,1,1,"A_first"
"495",25,296.87,296.89,4,"A clown was bought by the hen.","nonsense",7.51402688026,1,"ldrc_1_001","2","passive_ns",FALSE,1,1,"A_first"
"496",26,312.85,312.86,2,"The lamp wrote to the nurse.","nonsense",6.7392771244,1,"ldrc_1_001","2","active_ns",FALSE,1,1,"A_first"
"497",27,330.61,330.62,4,"The actor was kicked by cake.","nonsense",5.51837992668,1,"ldrc_1_001","2","passive_ns",FALSE,1,1,"A_first"
"498",28,343.48,343.49,1,"The clerk asked a question.","sense",7.64292311668,1,"ldrc_1_001","2","active_s",FALSE,1,1,"A_first"
"499",29,360.32,360.33,4,"A father was spotted by the egg.","nonsense",7.32920908928,1,"ldrc_1_001","2","passive_ns",FALSE,1,1,"A_first"
"500",30,370.6,370.6,2,"The house chewed on the phone.","nonsense",5.27852201462,1,"ldrc_1_001","2","active_ns",FALSE,1,1,"A_first"
"501",31,381.02,381.02,4,"The bird was told by the boat.","nonsense",5.10157608986,1,"ldrc_1_001","2","passive_ns",FALSE,1,1,"A_first"
"502",0,0,0.03,1,"A woman bought a pizza.","sense",3.05210113525,1,"ldrc_1_001","3","active_s",FALSE,1,1,"A_first"
"503",1,10.16,10.17,2,"The pillow jumped at a bear.","nonsense",3.82411003113,1,"ldrc_1_001","3","active_ns",FALSE,1,1,"A_first"
"504",2,25.97,25.98,3,"Tea was stirred by the aunt.","nonsense",4.04786276817,0,"ldrc_1_001","3","passive_s",FALSE,0,1,"A_first"
"505",3,40.97,40.98,3,"A gift was opened by a boy.","sense",3.80330896378,1,"ldrc_1_001","3","passive_s",FALSE,1,1,"A_first"
"506",4,53.69,53.71,2,"A game owned the doctor.","nonsense",3.86671090126,1,"ldrc_1_001","3","active_ns",FALSE,1,1,"A_first"
"507",5,64.57,64.58,3,"A pig was scared by a fox.","sense",6.61786413193,1,"ldrc_1_001","3","passive_s",FALSE,1,1,"A_first"
"508",6,75.24,75.25,4,"The dog was raised by a spoon.","nonsense",5.94732403755,1,"ldrc_1_001","3","passive_ns",FALSE,1,1,"A_first"
"509",7,86.91,86.92,1,"The cattle listened to the bell.","sense",6.38806796074,1,"ldrc_1_001","3","active_s",FALSE,1,1,"A_first"
"510",8,103.03,103.04,2,"A shirt chopped at the tray.","nonsense",5.01822900772,1,"ldrc_1_001","3","active_ns",FALSE,1,1,"A_first"
"511",9,118.89,118.9,4,"A song was picked by a cat.","nonsense",3.0220079422,1,"ldrc_1_001","3","passive_ns",FALSE,1,1,"A_first"
"512",10,128.92,128.94,1,"The baby rolled in the crib.","sense",3.68195796013,1,"ldrc_1_001","3","active_s",FALSE,1,1,"A_first"
"513",11,141.14,141.16,3,"The grass was moved by wind.","sense",4.47855186462,1,"ldrc_1_001","3","passive_s",FALSE,1,1,"A_first"
"514",12,151.22,151.23,3,"A card was marked with paint.",NA,NA,4,"ldrc_1_001","3","passive_s",FALSE,0,1,"A_first"
"515",13,161.68,161.68,4,"A test was cooked by a bat.","nonsense",3.91027593613,1,"ldrc_1_001","3","passive_ns",FALSE,1,1,"A_first"
"516",14,172.84,172.85,2,"The broom grabbed the queen.","nonsense",5.12217712402,1,"ldrc_1_001","3","active_ns",FALSE,1,1,"A_first"
"517",15,183.02,183.03,3,"The shot was given by a nurse.","nonsense",5.13471102715,0,"ldrc_1_001","3","passive_s",FALSE,0,1,"A_first"
"518",16,195.2,195.21,4,"The mirror was read by a car.","nonsense",4.7186870575,1,"ldrc_1_001","3","passive_ns",FALSE,1,1,"A_first"
"519",17,212.76,212.77,2,"A plate stained a kitten.","nonsense",6.66289114952,1,"ldrc_1_001","3","active_ns",FALSE,1,1,"A_first"
"520",18,223.41,223.43,1,"The lion roared at the meat.","sense",4.60486006737,1,"ldrc_1_001","3","active_s",FALSE,1,1,"A_first"
"521",19,237.03,237.05,4,"Mud was dressed by air.","nonsense",4.14896702766,1,"ldrc_1_001","3","passive_ns",FALSE,1,1,"A_first"
"522",20,248.04,248.05,1,"The father played the movie.","sense",3.41785216331,1,"ldrc_1_001","3","active_s",FALSE,1,1,"A_first"
"523",21,258.46,258.47,3,"A hand was licked by a puppy.","sense",6.33115005493,1,"ldrc_1_001","3","passive_s",FALSE,1,1,"A_first"
"524",22,274.9,274.91,1,"The worker built the barn.","sense",3.43358302116,1,"ldrc_1_001","3","active_s",FALSE,1,1,"A_first"
"525",23,289.51,289.52,4,"The hill was addressed by soap.","nonsense",6.38501095772,1,"ldrc_1_001","3","passive_ns",FALSE,1,1,"A_first"
"526",24,303.52,303.53,2,"A ring prepared for a potato.","nonsense",7.95575690269,1,"ldrc_1_001","3","active_ns",FALSE,1,1,"A_first"
"527",25,319.75,319.77,1,"The chicken ate some seed.","sense",5.34007191658,1,"ldrc_1_001","3","active_s",FALSE,1,1,"A_first"
"528",26,329.89,329.9,1,"The sheep escaped from the wolf.","sense",7.32691407204,1,"ldrc_1_001","3","active_s",FALSE,1,1,"A_first"
"529",27,343.4,343.41,4,"Dirt was borrowed by the chalk.","nonsense",5.67572689056,1,"ldrc_1_001","3","passive_ns",FALSE,1,1,"A_first"
"530",28,353.98,354,2,"The table climbed on a brother.","nonsense",3.7473089695,1,"ldrc_1_001","3","active_ns",FALSE,1,1,"A_first"
"531",29,370.82,370.84,3,"A worm was dropped by the bird.","sense",7.25873804092,1,"ldrc_1_001","3","passive_s",FALSE,1,1,"A_first"
"532",30,382.44,382.46,4,"The phone was boiled by a rat.","nonsense",7.57152605057,1,"ldrc_1_001","3","passive_ns",FALSE,1,1,"A_first"
"533",31,392.48,392.5,2,"The actress chased the sugar.","nonsense",7.31337404251,1,"ldrc_1_001","3","active_ns",FALSE,1,1,"A_first"
"534",0,0,0.05,2,"A pillow scratched the fish.","nonsense",2.48956799507,1,"ldrc_1_002","2","active_ns",FALSE,1,1,"A_first"
"536",1,10.72,10.74,3,"A broom was sold by a farmer.","sense",3.9013569355,1,"ldrc_1_002","2","passive_s",FALSE,1,1,"A_first"
"537",2,21.39,21.41,4,"The dragon was won by clay.","sense",6.98157215118,0,"ldrc_1_002","2","passive_ns",FALSE,0,1,"A_first"
"538",3,38.56,38.58,1,"The monkey climbed a tree.",NA,NA,4,"ldrc_1_002","2","active_s",FALSE,0,1,"A_first"
"539",4,54.45,54.47,4,"A man was scored by wind.","sense",6.092015028,0,"ldrc_1_002","2","passive_ns",FALSE,0,1,"A_first"
"540",5,64.83,64.84,1,"The rabbit jumped in the grass.","sense",2.80120205879,1,"ldrc_1_002","2","active_s",FALSE,1,1,"A_first"
"541",6,80.32,80.33,4,"A flower was milked by a bear.","nonsense",4.56008601189,1,"ldrc_1_002","2","passive_ns",FALSE,1,1,"A_first"
"542",7,90.96,90.97,2,"A chicken shopped at a movie.","nonsense",5.95762491226,1,"ldrc_1_002","2","active_ns",FALSE,1,1,"A_first"
"543",8,106.1,106.13,2,"The apple watched a king.","nonsense",4.27286696434,1,"ldrc_1_002","2","active_ns",FALSE,1,1,"A_first"
"544",9,116.71,116.73,1,"The actor pulled on a rope.","sense",5.7827899456,1,"ldrc_1_002","2","active_s",FALSE,1,1,"A_first"
"545",10,131.58,131.6,1,"A cowgirl caught a snake.","sense",6.78473186493,1,"ldrc_1_002","2","active_s",FALSE,1,1,"A_first"
"546",11,143.41,143.43,4,"The bug was cooked by a key.","nonsense",4.63512206078,1,"ldrc_1_002","2","passive_ns",FALSE,1,1,"A_first"
"547",12,154.13,154.15,4,"Seed was raised by the rug.","nonsense",6.19951796532,1,"ldrc_1_002","2","passive_ns",FALSE,1,1,"A_first"
"548",13,164.48,164.5,3,"A box was cut by the worker.","sense",4.94477987289,1,"ldrc_1_002","2","passive_s",FALSE,1,1,"A_first"
"549",14,182.42,182.44,1,"The doctor used the phone.","sense",3.4961669445,1,"ldrc_1_002","2","active_s",FALSE,1,1,"A_first"
"550",15,193.7,193.71,2,"A piano planted a brother.","nonsense",4.82361793518,1,"ldrc_1_002","2","active_ns",FALSE,1,1,"A_first"
"551",16,206.11,206.12,4,"The pig was hugged by a joke.","nonsense",7.6229019165,1,"ldrc_1_002","2","passive_ns",FALSE,1,1,"A_first"
"552",17,223.68,223.69,3,"A cake was baked by mom.","sense",3.36423516273,1,"ldrc_1_002","2","passive_s",FALSE,1,1,"A_first"
"553",18,234.74,234.76,3,"The egg was lost by the duck.","nonsense",5.81043696404,0,"ldrc_1_002","2","passive_s",FALSE,0,1,"A_first"
"554",19,250.08,250.1,2,"A present picked the raccoon.","nonsense",6.05220508575,1,"ldrc_1_002","2","active_ns",FALSE,1,1,"A_first"
"555",20,260.45,260.47,3,"A fork was found by the kid.","nonsense",3.24361991882,0,"ldrc_1_002","2","passive_s",FALSE,0,1,"A_first"
"556",21,270.85,270.86,1,"The dog chased the car.","sense",2.85733580589,1,"ldrc_1_002","2","active_s",FALSE,1,1,"A_first"
"557",22,280.9,280.92,3,"The sock was worn by a baby.","sense",3.44352388382,1,"ldrc_1_002","2","passive_s",FALSE,1,1,"A_first"
"558",23,293.63,293.65,2,"The bucket told a horse.","nonsense",3.57524895668,1,"ldrc_1_002","2","active_ns",FALSE,1,1,"A_first"
"559",24,304.11,304.13,4,"A couch was saved by a plum.","nonsense",3.99257779121,1,"ldrc_1_002","2","passive_ns",FALSE,1,1,"A_first"
"560",25,314.89,314.91,1,"A teacher graded a paper.","sense",2.90201807022,1,"ldrc_1_002","2","active_s",FALSE,1,1,"A_first"
"561",26,325.02,325.03,3,"The ball was kicked by a girl.","sense",2.81656503677,1,"ldrc_1_002","2","passive_s",FALSE,1,1,"A_first"
"562",27,339.56,339.57,2,"The chalk wanted a child.","nonsense",4.05766892433,1,"ldrc_1_002","2","active_ns",FALSE,1,1,"A_first"
"563",28,350.98,350.99,1,"A turtle crawled to the water.","sense",5.751693964,1,"ldrc_1_002","2","active_s",FALSE,1,1,"A_first"
"564",29,368.12,368.14,4,"A hand was built by the ant.","nonsense",5.44089889526,1,"ldrc_1_002","2","passive_ns",FALSE,1,1,"A_first"
"565",30,380.08,380.11,3,"Cheese was chewed by a rat.","sense",5.32959890366,1,"ldrc_1_002","2","passive_s",FALSE,1,1,"A_first"
"566",31,395.78,395.8,2,"The bread heard a camel.","nonsense",3.26516819,1,"ldrc_1_002","2","active_ns",FALSE,1,1,"A_first"
"567",0,0,0.05,1,"A bird dropped the worm.","sense",5.94579815865,1,"ldrc_1_002","3","active_s",FALSE,1,1,"A_first"
"568",1,10.16,10.17,2,"The couch sang to the duck.","nonsense",6.03227996826,1,"ldrc_1_002","3","active_ns",FALSE,1,1,"A_first"
"569",2,25.97,25.99,3,"The show was seen by a child.","sense",5.68471598625,1,"ldrc_1_002","3","passive_s",FALSE,1,1,"A_first"
"570",3,40.97,40.98,3,"A rug was rolled by the actor.",NA,NA,4,"ldrc_1_002","3","passive_s",FALSE,0,1,"A_first"
"571",4,53.69,53.71,2,"A hen carried the dancer.","nonsense",3.46497392654,1,"ldrc_1_002","3","active_ns",FALSE,1,1,"A_first"
"572",5,64.57,64.59,3,"Pizza was cooked by the man.","sense",4.68749809265,1,"ldrc_1_002","3","passive_s",FALSE,1,1,"A_first"
"573",6,75.24,75.26,4,"A chair was tasted by a frame.","nonsense",5.56373405457,1,"ldrc_1_002","3","passive_ns",FALSE,1,1,"A_first"
"574",7,86.91,86.94,1,"The uncle put sugar in the tea.","sense",4.78866696358,1,"ldrc_1_002","3","active_s",FALSE,1,1,"A_first"
"575",8,103.03,103.04,2,"A fence walked to the mother.","nonsense",4.32948708534,1,"ldrc_1_002","3","active_ns",FALSE,1,1,"A_first"
"576",9,118.89,118.92,4,"Fire was licked by a banana.","nonsense",4.34769201279,1,"ldrc_1_002","3","passive_ns",FALSE,1,1,"A_first"
"577",10,128.92,128.94,1,"A fly entered the house.","sense",5.50728988647,1,"ldrc_1_002","3","active_s",FALSE,1,1,"A_first"
"578",11,141.14,141.16,3,"A cat was saved by a king.","nonsense",4.6049079895,2,"ldrc_1_002","3","passive_s",FALSE,0,1,"A_first"
"581",12,151.22,151.23,3,"The shirt was stained by mud.","sense",4.08429193497,1,"ldrc_1_002","3","passive_s",FALSE,1,1,"A_first"
"582",13,161.68,161.7,4,"Pasta was waved by a fish.","nonsense",6.18474984169,1,"ldrc_1_002","3","passive_ns",FALSE,1,1,"A_first"
"583",14,172.84,172.85,2,"A joke hugged the dragon.","nonsense",3.09649205208,1,"ldrc_1_002","3","active_ns",FALSE,1,1,"A_first"
"584",15,183.02,183.04,3,"A phone was used by a doctor.","sense",2.46123504639,1,"ldrc_1_002","3","passive_s",FALSE,1,1,"A_first"
"586",16,195.2,195.21,4,"A cup was cut by the pillow.","nonsense",5.24784302711,1,"ldrc_1_002","3","passive_ns",FALSE,1,1,"A_first"
"587",17,212.76,212.79,2,"The snake asked for the father.","nonsense",5.56361794472,1,"ldrc_1_002","3","active_ns",FALSE,1,1,"A_first"
"588",18,223.41,223.43,1,"A mouse chewed on the cheese.","sense",5.51837396622,1,"ldrc_1_002","3","active_s",FALSE,1,1,"A_first"
"589",19,237.03,237.05,4,"Pie was raised by the letter.","nonsense",4.26340198517,1,"ldrc_1_002","3","passive_ns",FALSE,1,1,"A_first"
"590",20,248.04,248.05,1,"The banker counted the money.","sense",4.98405194283,1,"ldrc_1_002","3","active_s",FALSE,1,1,"A_first"
"591",21,258.46,258.47,3,"The lamp was bought by the sister.","sense",4.36744713783,1,"ldrc_1_002","3","passive_s",FALSE,1,1,"A_first"
"592",22,274.9,274.93,1,"The boy cleared off the table.","sense",3.12802004814,1,"ldrc_1_002","3","active_s",FALSE,1,1,"A_first"
"593",23,289.51,289.54,4,"Bread was scratched by a tray.","nonsense",5.95858597755,1,"ldrc_1_002","3","passive_ns",FALSE,1,1,"A_first"
"594",24,303.52,303.54,2,"The ear dressed a student.","sense",4.95713090897,2,"ldrc_1_002","3","active_ns",FALSE,0,1,"A_first"
"597",25,319.75,319.77,1,"The queen planted a flower.","sense",4.91238021851,1,"ldrc_1_002","3","active_s",FALSE,1,1,"A_first"
"598",26,329.89,329.9,1,"A tiger scared the zebra.","sense",3.97217106819,1,"ldrc_1_002","3","active_s",FALSE,1,1,"A_first"
"599",27,343.4,343.42,4,"A rope was sold by the frog.",NA,NA,4,"ldrc_1_002","3","passive_ns",FALSE,0,1,"A_first"
"600",28,353.98,354,2,"The iron borrowed a teacher.","sense",4.59157705307,2,"ldrc_1_002","3","active_ns",FALSE,0,1,"A_first"
"603",29,370.82,370.84,3,"Soup was served by a woman.","sense",3.8798251152,1,"ldrc_1_002","3","passive_s",FALSE,1,1,"A_first"
"604",30,382.44,382.46,4,"The girl was told by a fork.","nonsense",4.18267512321,1,"ldrc_1_002","3","passive_ns",FALSE,1,1,"A_first"
"605",31,392.48,392.5,2,"A basement won the family.",NA,NA,4,"ldrc_1_002","3","active_ns",FALSE,0,1,"A_first"
"606",0,0,0.03,4,"The soup was caught by a ring.","nonsense",0.1137778759,3,"ldrc_1_004","1","passive_ns",FALSE,0,1,"A_first"
"608",1,10.89,10.91,2,"A goat graded the mirror.","nonsense",5.19502902031,1,"ldrc_1_004","1","active_ns",FALSE,1,1,"A_first"
"609",2,21.08,21.09,3,"The movie was played by dad.",NA,NA,4,"ldrc_1_004","1","passive_s",FALSE,0,1,"A_first"
"610",3,36.88,36.9,2,"The barn barked at the driver.",NA,NA,4,"ldrc_1_004","1","active_ns",FALSE,0,1,"A_first"
"611",4,50.82,50.84,1,"A clown let go of a balloon.","sense",6.75821995735,1,"ldrc_1_004","1","active_s",FALSE,1,1,"A_first"
"612",5,61.13,61.14,4,"The boy was owned by a lamp.","nonsense",4.69588303566,1,"ldrc_1_004","1","passive_ns",FALSE,1,1,"A_first"
"613",6,75.94,75.95,3,"The test was read by a teacher.","sense",5.12633180618,1,"ldrc_1_004","1","passive_s",FALSE,1,1,"A_first"
"614",7,87.72,87.74,3,"Seed was pecked by a hen.","sense",5.67869496346,1,"ldrc_1_004","1","passive_s",FALSE,1,1,"A_first"
"615",8,99.72,99.72,4,"A table was planted by a kid.","sense",4.76678013802,0,"ldrc_1_004","1","passive_ns",FALSE,0,1,"A_first"
"616",9,111.38,111.4,4,"A king was chewed by a tree.","nonsense",5.07044291496,1,"ldrc_1_004","1","passive_ns",FALSE,1,1,"A_first"
"617",10,122.22,122.23,1,"A girl kicked the ball.","nonsense",5.42515301704,0,"ldrc_1_004","1","active_s",FALSE,0,1,"A_first"
"618",11,134.13,134.14,2,"The woman scared the paper.","nonsense",4.00654697418,1,"ldrc_1_004","1","active_ns",FALSE,1,1,"A_first"
"619",12,146.54,146.54,2,"The flag roared at a flower.","sense",6.22376704216,0,"ldrc_1_004","1","active_ns",FALSE,0,1,"A_first"
"620",13,158.49,158.5,3,"A home was entered by the men.","sense",4.72043514252,1,"ldrc_1_004","1","passive_s",FALSE,1,1,"A_first"
"621",14,169.83,169.84,1,"The actress watched a show.","nonsense",6.68467593193,0,"ldrc_1_004","1","active_s",FALSE,0,1,"A_first"
"622",15,179.98,179.99,1,"A cousin wanted a pillow.","nonsense",7.97703289986,0,"ldrc_1_004","1","active_s",FALSE,0,1,"A_first"
"623",16,190.27,190.28,2,"The banana lost the worm.","nonsense",7.19558691978,1,"ldrc_1_004","1","active_ns",FALSE,1,1,"A_first"
"624",17,200.64,200.65,3,"The car was chased by a dog.","sense",7.81299996376,1,"ldrc_1_004","1","passive_s",FALSE,1,1,"A_first"
"625",18,215.75,215.76,1,"The mother carried a cake.",NA,NA,4,"ldrc_1_004","1","active_s",FALSE,0,1,"A_first"
"626",19,225.84,225.84,3,"A rope was pulled by the ape.","sense",6.53600287437,1,"ldrc_1_004","1","passive_s",FALSE,1,1,"A_first"
"627",20,235.87,235.88,1,"A raccoon scratched at the box.","sense",5.23153614998,1,"ldrc_1_004","1","active_s",FALSE,1,1,"A_first"
"628",21,247.77,247.79,2,"The sock listened to the pig.","nonsense",5.99336791039,1,"ldrc_1_004","1","active_ns",FALSE,1,1,"A_first"
"629",22,257.97,257.97,3,"The plum was tasted by a bear.","sense",7.49109911919,1,"ldrc_1_004","1","passive_s",FALSE,1,1,"A_first"
"630",23,268.09,268.09,3,"A song was sung by the cowboy.","sense",5.32249712944,1,"ldrc_1_004","1","passive_s",FALSE,1,1,"A_first"
"631",24,280.16,280.17,1,"The baker stirred the spoon.","nonsense",6.17329406738,0,"ldrc_1_004","1","active_s",FALSE,0,1,"A_first"
"632",25,296.87,296.89,4,"The door was eaten by a pot.","nonsense",4.23219895363,1,"ldrc_1_004","1","passive_ns",FALSE,1,1,"A_first"
"633",26,312.85,312.86,2,"A boat raced in the library.","nonsense",6.40036511421,1,"ldrc_1_004","1","active_ns",FALSE,1,1,"A_first"
"634",27,330.61,330.62,4,"Pizza was used by a book.","nonsense",7.40763092041,1,"ldrc_1_004","1","passive_ns",FALSE,1,1,"A_first"
"635",28,343.48,343.49,1,"A falcon grabbed the egg.",NA,NA,4,"ldrc_1_004","1","active_s",FALSE,0,1,"A_first"
"636",29,360.32,360.33,4,"A horse was peeled by salt.","nonsense",6.35128688812,1,"ldrc_1_004","1","passive_ns",FALSE,1,1,"A_first"
"637",30,370.6,370.62,2,"The key opened the carrot.","nonsense",4.9421210289,1,"ldrc_1_004","1","active_ns",FALSE,1,1,"A_first"
"638",31,381.02,381.02,4,"A chicken was asked by a bell.",NA,NA,4,"ldrc_1_004","1","passive_ns",FALSE,0,1,"A_first"
"639",0,0,0.03,1,"A bird dropped the worm.","nonsense",2.21667408943,0,"ldrc_1_004","2","active_s",FALSE,0,1,"A_first"
"640",1,10.16,10.17,2,"The couch sang to the duck.","nonsense",4.94361305237,1,"ldrc_1_004","2","active_ns",FALSE,1,1,"A_first"
"641",2,25.97,25.98,3,"The show was seen by a child.","nonsense",7.44772219658,0,"ldrc_1_004","2","passive_s",FALSE,0,1,"A_first"
"642",3,40.97,40.98,3,"A rug was rolled by the actor.","sense",7.69787597656,1,"ldrc_1_004","2","passive_s",FALSE,1,1,"A_first"
"643",4,53.69,53.71,2,"A hen carried the dancer.","nonsense",5.63235521317,1,"ldrc_1_004","2","active_ns",FALSE,1,1,"A_first"
"644",5,64.57,64.58,3,"Pizza was cooked by the man.","sense",5.47660708427,1,"ldrc_1_004","2","passive_s",FALSE,1,1,"A_first"
"645",6,75.24,75.25,4,"A chair was tasted by a frame.","nonsense",7.94212007523,1,"ldrc_1_004","2","passive_ns",FALSE,1,1,"A_first"
"646",7,86.91,86.92,1,"The uncle put sugar in the tea.","sense",6.20779204369,1,"ldrc_1_004","2","active_s",FALSE,1,1,"A_first"
"647",8,103.03,103.04,2,"A fence walked to the mother.",NA,NA,4,"ldrc_1_004","2","active_ns",FALSE,0,1,"A_first"
"648",9,118.89,118.9,4,"Fire was licked by a banana.","nonsense",5.72886610031,1,"ldrc_1_004","2","passive_ns",FALSE,1,1,"A_first"
"649",10,128.92,128.94,1,"A fly entered the house.","sense",7.14861893654,1,"ldrc_1_004","2","active_s",FALSE,1,1,"A_first"
"650",11,141.14,141.16,3,"A cat was saved by a king.","nonsense",6.83945298195,0,"ldrc_1_004","2","passive_s",FALSE,0,1,"A_first"
"651",12,151.22,151.23,3,"The shirt was stained by mud.",NA,NA,4,"ldrc_1_004","2","passive_s",FALSE,0,1,"A_first"
"652",13,161.68,161.68,4,"Pasta was waved by a fish.",NA,NA,4,"ldrc_1_004","2","passive_ns",FALSE,0,1,"A_first"
"653",14,172.84,172.85,2,"A joke hugged the dragon.","nonsense",4.58197689056,1,"ldrc_1_004","2","active_ns",FALSE,1,1,"A_first"
"654",15,183.02,183.03,3,"A phone was used by a doctor.",NA,NA,4,"ldrc_1_004","2","passive_s",FALSE,0,1,"A_first"
"655",16,195.2,195.21,4,"A cup was cut by the pillow.","nonsense",6.49041008949,1,"ldrc_1_004","2","passive_ns",FALSE,1,1,"A_first"
"656",17,212.76,212.77,2,"The snake asked for the father.","nonsense",6.0016310215,1,"ldrc_1_004","2","active_ns",FALSE,1,1,"A_first"
"657",18,223.41,223.43,1,"A mouse chewed on the cheese.","sense",4.88948512077,1,"ldrc_1_004","2","active_s",FALSE,1,1,"A_first"
"658",19,237.03,237.05,4,"Pie was raised by the letter.","nonsense",4.94576406479,1,"ldrc_1_004","2","passive_ns",FALSE,1,1,"A_first"
"659",20,248.04,248.05,1,"The banker counted the money.","sense",5.67250704765,1,"ldrc_1_004","2","active_s",FALSE,1,1,"A_first"
"660",21,258.46,258.47,3,"The lamp was bought by the sister.",NA,NA,4,"ldrc_1_004","2","passive_s",FALSE,0,1,"A_first"
"661",22,274.9,274.91,1,"The boy cleared off the table.","sense",3.99614500999,1,"ldrc_1_004","2","active_s",FALSE,1,1,"A_first"
"662",23,289.51,289.52,4,"Bread was scratched by a tray.","nonsense",5.16074490547,1,"ldrc_1_004","2","passive_ns",FALSE,1,1,"A_first"
"663",24,303.52,303.53,2,"The ear dressed a student.","nonsense",6.45541501045,1,"ldrc_1_004","2","active_ns",FALSE,1,1,"A_first"
"664",25,319.75,319.77,1,"The queen planted a flower.","sense",6.25376200676,1,"ldrc_1_004","2","active_s",FALSE,1,1,"A_first"
"665",26,329.89,329.9,1,"A tiger scared the zebra.","sense",6.42555594444,1,"ldrc_1_004","2","active_s",FALSE,1,1,"A_first"
"666",27,343.4,343.41,4,"A rope was sold by the frog.","nonsense",5.89537620544,1,"ldrc_1_004","2","passive_ns",FALSE,1,1,"A_first"
"667",28,353.98,354,2,"The iron borrowed a teacher.","nonsense",6.86404395103,1,"ldrc_1_004","2","active_ns",FALSE,1,1,"A_first"
"668",29,370.82,370.84,3,"Soup was served by a woman.","sense",5.89725804329,1,"ldrc_1_004","2","passive_s",FALSE,1,1,"A_first"
"669",30,382.44,382.46,4,"The girl was told by a fork.",NA,NA,4,"ldrc_1_004","2","passive_ns",FALSE,0,1,"A_first"
"670",31,392.48,392.5,2,"A basement won the family.","nonsense",0.520964860916,1,"ldrc_1_004","2","active_ns",FALSE,1,1,"A_first"
"672",0,0,0.03,2,"A pillow scratched the fish.","nonsense",3.86731791496,1,"ldrc_1_004","3","active_ns",FALSE,1,1,"A_first"
"673",1,10.72,10.74,3,"A broom was sold by a farmer.","sense",5.32626509666,1,"ldrc_1_004","3","passive_s",FALSE,1,1,"A_first"
"674",2,21.39,21.41,4,"The dragon was won by clay.","nonsense",5.48838114738,1,"ldrc_1_004","3","passive_ns",FALSE,1,1,"A_first"
"675",3,38.56,38.57,1,"The monkey climbed a tree.","sense",3.37897586823,1,"ldrc_1_004","3","active_s",FALSE,1,1,"A_first"
"676",4,54.45,54.46,4,"A man was scored by wind.",NA,NA,4,"ldrc_1_004","3","passive_ns",FALSE,0,1,"A_first"
"677",5,64.83,64.84,1,"The rabbit jumped in the grass.","sense",4.97136998177,1,"ldrc_1_004","3","active_s",FALSE,1,1,"A_first"
"679",6,80.32,80.33,4,"A flower was milked by a bear.",NA,NA,4,"ldrc_1_004","3","passive_ns",FALSE,0,1,"A_first"
"680",7,90.96,90.97,2,"A chicken shopped at a movie.","nonsense",4.2724981308,1,"ldrc_1_004","3","active_ns",FALSE,1,1,"A_first"
"681",8,106.1,106.11,2,"The apple watched a king.","nonsense",4.897605896,1,"ldrc_1_004","3","active_ns",FALSE,1,1,"A_first"
"682",9,116.71,116.72,1,"The actor pulled on a rope.","sense",5.49445915222,1,"ldrc_1_004","3","active_s",FALSE,1,1,"A_first"
"683",10,131.58,131.59,1,"A cowgirl caught a snake.",NA,NA,4,"ldrc_1_004","3","active_s",FALSE,0,1,"A_first"
"684",11,143.41,143.43,4,"The bug was cooked by a key.","nonsense",7.76931285858,1,"ldrc_1_004","3","passive_ns",FALSE,1,1,"A_first"
"685",12,154.13,154.15,4,"Seed was raised by the rug.","nonsense",7.26945114136,1,"ldrc_1_004","3","passive_ns",FALSE,1,1,"A_first"
"686",13,164.48,164.48,3,"A box was cut by the worker.","sense",6.37917995453,1,"ldrc_1_004","3","passive_s",FALSE,1,1,"A_first"
"687",14,182.42,182.43,1,"The doctor used the phone.","sense",4.80506896973,1,"ldrc_1_004","3","active_s",FALSE,1,1,"A_first"
"688",15,193.7,193.71,2,"A piano planted a brother.","nonsense",7.19845294952,1,"ldrc_1_004","3","active_ns",FALSE,1,1,"A_first"
"689",16,206.11,206.12,4,"The pig was hugged by a joke.","nonsense",5.92970895767,1,"ldrc_1_004","3","passive_ns",FALSE,1,1,"A_first"
"690",17,223.68,223.69,3,"A cake was baked by mom.","sense",5.47328805923,1,"ldrc_1_004","3","passive_s",FALSE,1,1,"A_first"
"691",18,234.74,234.75,3,"The egg was laid by the duck.","sense",5.72808003426,1,"ldrc_1_004","3","passive_s",FALSE,1,1,"A_first"
"692",19,250.08,250.09,2,"A present picked the raccoon.","nonsense",7.11989092827,1,"ldrc_1_004","3","active_ns",FALSE,1,1,"A_first"
"693",20,260.45,260.46,3,"A fork was found by the kid.",NA,NA,4,"ldrc_1_004","3","passive_s",FALSE,0,1,"A_first"
"694",21,270.85,270.86,1,"The dog chased the car.","sense",5.54125905037,1,"ldrc_1_004","3","active_s",FALSE,1,1,"A_first"
"695",22,280.9,280.92,3,"The sock was worn by a baby.","nonsense",6.35438108444,0,"ldrc_1_004","3","passive_s",FALSE,0,1,"A_first"
"696",23,293.63,293.64,2,"The bucket told a horse.","nonsense",5.99077486992,1,"ldrc_1_004","3","active_ns",FALSE,1,1,"A_first"
"697",24,304.11,304.13,4,"A couch was saved by a plum.",NA,NA,4,"ldrc_1_004","3","passive_ns",FALSE,0,1,"A_first"
"698",25,314.89,314.9,1,"A teacher graded a paper.","sense",3.91377806664,1,"ldrc_1_004","3","active_s",FALSE,1,1,"A_first"
"700",26,325.02,325.03,3,"The ball was kicked by a girl.","sense",4.5724260807,1,"ldrc_1_004","3","passive_s",FALSE,1,1,"A_first"
"701",27,339.56,339.57,2,"The chalk wanted a child.",NA,NA,4,"ldrc_1_004","3","active_ns",FALSE,0,1,"A_first"
"702",28,350.98,350.99,1,"A turtle crawled to the water.","sense",6.07064604759,1,"ldrc_1_004","3","active_s",FALSE,1,1,"A_first"
"703",29,368.12,368.14,4,"A hand was built by the ant.",NA,NA,4,"ldrc_1_004","3","passive_ns",FALSE,0,1,"A_first"
"704",30,380.08,380.09,3,"Cheese was chewed by a rat.","sense",6.48319196701,1,"ldrc_1_004","3","passive_s",FALSE,1,1,"A_first"
"705",31,395.78,395.8,2,"The bread heard a camel.","nonsense",4.3741850853,1,"ldrc_1_004","3","active_ns",FALSE,1,1,"A_first"
"706",0,0,0.03,4,"A wolf was found by a fan.","nonsense",5.96913194656,1,"ldrc_1_007","2","passive_ns",FALSE,1,1,"A_first"
"707",1,10.89,10.91,2,"A chicken shopped at a movie.","nonsense",3.37129092216,1,"ldrc_1_007","2","active_ns",FALSE,1,1,"A_first"
"708",2,21.08,21.09,3,"The book was read by a friend.","sense",5.82226109505,1,"ldrc_1_007","2","passive_s",FALSE,1,1,"A_first"
"709",3,36.88,36.9,2,"The puppy scored a dress.","nonsense",4.25608491898,1,"ldrc_1_007","2","active_ns",FALSE,1,1,"A_first"
"710",4,50.82,50.84,1,"A nurse helped a student.","sense",3.64942383766,1,"ldrc_1_007","2","active_s",FALSE,1,1,"A_first"
"711",5,61.13,61.14,4,"The mouse was graded by a flag.","nonsense",6.17047286034,1,"ldrc_1_007","2","passive_ns",FALSE,1,1,"A_first"
"712",6,75.94,75.95,3,"Meat was eaten by a lion.","sense",4.81887292862,1,"ldrc_1_007","2","passive_s",FALSE,1,1,"A_first"
"713",7,87.72,87.74,3,"The spoon was waved by a cook.","sense",6.60697603226,1,"ldrc_1_007","2","passive_s",FALSE,1,1,"A_first"
"714",8,99.72,99.72,4,"A card was scared by a baby.","nonsense",6.1900370121,1,"ldrc_1_007","2","passive_ns",FALSE,1,1,"A_first"
"715",9,111.38,111.4,4,"The mat was raced by a fox.","nonsense",6.88698911667,1,"ldrc_1_007","2","passive_ns",FALSE,1,1,"A_first"
"716",10,122.22,122.23,1,"A tree was planted in dirt.","sense",7.24252820015,1,"ldrc_1_007","2","active_s",FALSE,1,1,"A_first"
"717",11,134.13,134.14,2,"The soup hired a cowboy.","nonsense",4.11799907684,1,"ldrc_1_007","2","active_ns",FALSE,1,1,"A_first"
"718",12,146.54,146.54,2,"The store cooked on the grass.","nonsense",6.74823379517,1,"ldrc_1_007","2","active_ns",FALSE,1,1,"A_first"
"719",13,158.49,158.5,3,"A joke was told by the queen.","sense",4.04560089111,1,"ldrc_1_007","2","passive_s",FALSE,1,1,"A_first"
"720",14,169.83,169.84,1,"The bear tasted the apple.","sense",5.15708208084,1,"ldrc_1_007","2","active_s",FALSE,1,1,"A_first"
"721",15,179.98,179.99,1,"The child peeled the banana.","sense",6.8241481781,1,"ldrc_1_007","2","active_s",FALSE,1,1,"A_first"
"722",16,190.27,190.28,2,"The fork called to a sister.","nonsense",4.39674520493,1,"ldrc_1_007","2","active_ns",FALSE,1,1,"A_first"
"723",17,200.64,200.65,3,"Pie was made by a cousin.","sense",3.80912303925,1,"ldrc_1_007","2","passive_s",FALSE,1,1,"A_first"
"724",18,215.75,215.76,1,"A family baked some bread.","sense",4.93035721779,1,"ldrc_1_007","2","active_s",FALSE,1,1,"A_first"
"725",19,225.84,225.84,3,"The ring was owned by a dancer.","sense",6.36223721504,1,"ldrc_1_007","2","passive_s",FALSE,1,1,"A_first"
"726",20,235.87,235.88,1,"A mom addressed the letter.",NA,NA,4,"ldrc_1_007","2","active_s",FALSE,0,1,"A_first"
"727",21,247.77,247.79,2,"A candle sold the question.","nonsense",5.22649598122,1,"ldrc_1_007","2","active_ns",FALSE,1,1,"A_first"
"728",22,257.97,257.97,3,"Clay was rolled by the artist.","sense",5.88347196579,1,"ldrc_1_007","2","passive_s",FALSE,1,1,"A_first"
"729",23,268.09,268.09,3,"A fence was jumped by a horse.","sense",3.7277610302,1,"ldrc_1_007","2","passive_s",FALSE,1,1,"A_first"
"730",24,280.16,280.17,1,"A driver honked at the walker.","sense",5.88048291206,1,"ldrc_1_007","2","active_s",FALSE,1,1,"A_first"
"731",25,296.87,296.89,4,"The woman was pulled by a nut.","nonsense",4.67542099953,1,"ldrc_1_007","2","passive_ns",FALSE,1,1,"A_first"
"732",26,312.85,312.86,2,"The rabbit bought the worker.","nonsense",3.56872081757,1,"ldrc_1_007","2","active_ns",FALSE,1,1,"A_first"
"733",27,330.61,330.62,4,"Iron was chased by the bee.","nonsense",4.68174004555,1,"ldrc_1_007","2","passive_ns",FALSE,1,1,"A_first"
"734",28,343.48,343.49,1,"The aunt walked on the boat.","sense",6.32437205315,1,"ldrc_1_007","2","active_s",FALSE,1,1,"A_first"
"735",29,360.32,360.33,4,"A ball was prepared by glass.","nonsense",6.91661095619,1,"ldrc_1_007","2","passive_ns",FALSE,1,1,"A_first"
"736",30,370.6,370.6,2,"The money counted the singer.",NA,NA,4,"ldrc_1_007","2","active_ns",FALSE,0,1,"A_first"
"737",31,381.02,381.02,4,"Sugar was moved by the sock.","nonsense",4.24023795128,1,"ldrc_1_007","2","passive_ns",FALSE,1,1,"A_first"
"738",0,0,0.03,2,"A plate stained a kitten.","nonsense",4.0480659008,1,"ldrc_1_007","3","active_ns",FALSE,1,1,"A_first"
"739",1,10.72,10.74,3,"A wall was marked with paint.",NA,NA,4,"ldrc_1_007","3","passive_s",FALSE,0,1,"A_first"
"740",2,21.39,21.41,4,"The hill was addressed by soap.","nonsense",4.18225502968,1,"ldrc_1_007","3","passive_ns",FALSE,1,1,"A_first"
"741",3,38.56,38.57,1,"The baby rolled in the crib.","sense",4.10767316818,1,"ldrc_1_007","3","active_s",FALSE,1,1,"A_first"
"742",4,54.45,54.46,4,"Dirt was borrowed by the chalk.","sense",5.34129595757,2,"ldrc_1_007","3","passive_ns",FALSE,0,1,"A_first"
"746",5,64.83,64.84,1,"The cattle listened to the bell.","nonsense",6.05720114708,0,"ldrc_1_007","3","active_s",FALSE,0,1,"A_first"
"747",6,80.32,80.33,4,"Mud was dressed by air.","nonsense",5.14971518517,1,"ldrc_1_007","3","passive_ns",FALSE,1,1,"A_first"
"748",7,90.96,90.97,2,"A ring prepared for a potato.","nonsense",7.78540205956,1,"ldrc_1_007","3","active_ns",FALSE,1,1,"A_first"
"749",8,106.1,106.11,2,"A game owned the doctor.","nonsense",4.67120289803,1,"ldrc_1_007","3","active_ns",FALSE,1,1,"A_first"
"750",9,116.71,116.72,1,"The sheep escaped from the wolf.","nonsense",6.3331360817,0,"ldrc_1_007","3","active_s",FALSE,0,1,"A_first"
"751",10,131.58,131.59,1,"A woman bought a pizza.","sense",3.85071587563,1,"ldrc_1_007","3","active_s",FALSE,1,1,"A_first"
"752",11,143.41,143.43,4,"The phone was boiled by a rat.","nonsense",6.04494810104,1,"ldrc_1_007","3","passive_ns",FALSE,1,1,"A_first"
"753",12,154.13,154.15,4,"The dog was raised by a spoon.","nonsense",3.53919005394,1,"ldrc_1_007","3","passive_ns",FALSE,1,1,"A_first"
"754",13,164.48,164.48,3,"A pig was scared by a fox.","sense",4.27190279961,1,"ldrc_1_007","3","passive_s",FALSE,1,1,"A_first"
"755",14,182.42,182.43,1,"The chicken ate some seed.","sense",4.00377511978,1,"ldrc_1_007","3","active_s",FALSE,1,1,"A_first"
"756",15,193.7,193.71,2,"The pillow jumped at a bear.","nonsense",7.18812680244,1,"ldrc_1_007","3","active_ns",FALSE,1,1,"A_first"
"757",16,206.11,206.12,4,"A song was picked by a cat.","nonsense",5.22038388252,1,"ldrc_1_007","3","passive_ns",FALSE,1,1,"A_first"
"758",17,223.68,223.69,3,"The grass was moved by wind.","sense",3.31478595734,1,"ldrc_1_007","3","passive_s",FALSE,1,1,"A_first"
"759",18,234.74,234.75,3,"A gift was opened by a boy.","sense",5.90181303024,1,"ldrc_1_007","3","passive_s",FALSE,1,1,"A_first"
"760",19,250.08,250.09,2,"The actress chased the sugar.","nonsense",5.68163704872,1,"ldrc_1_007","3","active_ns",FALSE,1,1,"A_first"
"761",20,260.45,260.46,3,"Tea was stirred by the aunt.",NA,NA,4,"ldrc_1_007","3","passive_s",FALSE,0,1,"A_first"
"762",21,270.85,270.86,1,"The father played the movie.","sense",2.5778670311,1,"ldrc_1_007","3","active_s",FALSE,1,1,"A_first"
"763",22,280.9,280.92,3,"A hand was licked by a puppy.","sense",6.85314798355,1,"ldrc_1_007","3","passive_s",FALSE,1,1,"A_first"
"764",23,293.63,293.64,2,"The table climbed on a brother.","nonsense",4.00956296921,1,"ldrc_1_007","3","active_ns",FALSE,1,1,"A_first"
"765",24,304.11,304.13,4,"The mirror was read by a car.","nonsense",4.86116909981,1,"ldrc_1_007","3","passive_ns",FALSE,1,1,"A_first"
"766",25,314.89,314.9,1,"The worker built the barn.","sense",5.26048898697,1,"ldrc_1_007","3","active_s",FALSE,1,1,"A_first"
"767",26,325.02,325.03,3,"A worm was dropped by the bird.",NA,NA,4,"ldrc_1_007","3","passive_s",FALSE,0,1,"A_first"
"768",27,339.56,339.57,2,"The broom grabbed the queen.","nonsense",6.07742595673,1,"ldrc_1_007","3","active_ns",FALSE,1,1,"A_first"
"769",28,350.98,350.99,1,"The lion roared at the meat.","sense",6.54134893417,1,"ldrc_1_007","3","active_s",FALSE,1,1,"A_first"
"770",29,368.12,368.14,4,"A test was cooked by a bat.","nonsense",4.35940003395,1,"ldrc_1_007","3","passive_ns",FALSE,1,1,"A_first"
"771",30,380.08,380.09,3,"The shot was given by a nurse.","sense",6.4059240818,1,"ldrc_1_007","3","passive_s",FALSE,1,1,"A_first"
"772",31,395.78,395.8,2,"A shirt chopped at the tray.","nonsense",5.73113799095,1,"ldrc_1_007","3","active_ns",FALSE,1,1,"A_first"
"773",0,0,0.03,1,"A cowgirl caught a snake.","sense",5.71653604507,1,"ldrc_1_015","1","active_s",FALSE,1,1,"A_first"
"774",1,10.16,10.17,2,"A piano planted a brother.","nonsense",6.35740590096,1,"ldrc_1_015","1","active_ns",FALSE,1,1,"A_first"
"775",2,25.97,25.98,3,"The sock was worn by a baby.","sense",7.77729797363,1,"ldrc_1_015","1","passive_s",FALSE,1,1,"A_first"
"776",3,40.97,40.98,3,"A box was cut by the worker.","nonsense",8.96859622002,0,"ldrc_1_015","1","passive_s",FALSE,0,1,"A_first"
"777",4,53.69,53.71,2,"The apple watched a king.","nonsense",5.36810302734,1,"ldrc_1_015","1","active_ns",FALSE,1,1,"A_first"
"778",5,64.57,64.58,3,"A fork was found by the kid.","nonsense",5.69422507286,0,"ldrc_1_015","1","passive_s",FALSE,0,1,"A_first"
"779",6,75.24,75.25,4,"Seed was raised by the rug.","nonsense",7.51840400696,1,"ldrc_1_015","1","passive_ns",FALSE,1,1,"A_first"
"780",7,86.91,86.92,1,"The doctor used the phone.","sense",5.58129692078,1,"ldrc_1_015","1","active_s",FALSE,1,1,"A_first"
"782",8,103.03,103.04,2,"The chalk wanted a child.","nonsense",8.36357998848,1,"ldrc_1_015","1","active_ns",FALSE,1,1,"A_first"
"783",9,118.89,118.9,4,"A man was scored by wind.","nonsense",7.79749894142,1,"ldrc_1_015","1","passive_ns",FALSE,1,1,"A_first"
"784",10,128.92,128.94,1,"The dog chased the car.","sense",4.27328705788,1,"ldrc_1_015","1","active_s",FALSE,1,1,"A_first"
"785",11,141.14,141.16,3,"The ball was kicked by a girl.","sense",5.32798314095,1,"ldrc_1_015","1","passive_s",FALSE,1,1,"A_first"
"786",12,151.22,151.23,3,"The egg was laid by the duck.","sense",7.26346302032,1,"ldrc_1_015","1","passive_s",FALSE,1,1,"A_first"
"787",13,161.68,161.68,4,"A hand was built by the ant.","sense",5.4065990448,2,"ldrc_1_015","1","passive_ns",FALSE,0,1,"A_first"
"790",14,172.84,172.85,2,"The bread heard a camel.","nonsense",8.35861706734,1,"ldrc_1_015","1","active_ns",FALSE,1,1,"A_first"
"791",15,183.02,183.03,3,"Cheese was chewed by a rat.","nonsense",5.85199809074,0,"ldrc_1_015","1","passive_s",FALSE,0,1,"A_first"
"792",16,195.2,195.21,4,"A couch was saved by a plum.","nonsense",7.70304703712,1,"ldrc_1_015","1","passive_ns",FALSE,1,1,"A_first"
"793",17,212.76,212.77,2,"A pillow scratched the fish.","nonsense",6.30716395378,1,"ldrc_1_015","1","active_ns",FALSE,1,1,"A_first"
"794",18,223.41,223.43,1,"A turtle crawled to the water.","nonsense",10.3343539238,3,"ldrc_1_015","1","active_s",FALSE,0,1,"A_first"
"795",19,237.03,237.05,4,"The dragon was won by clay.","nonsense",5.87436485291,1,"ldrc_1_015","1","passive_ns",FALSE,1,1,"A_first"
"796",20,248.04,248.05,1,"The monkey climbed a tree.","sense",5.33134698868,1,"ldrc_1_015","1","active_s",FALSE,1,1,"A_first"
"797",21,258.46,258.47,3,"A broom was sold by a farmer.","nonsense",7.83351898193,0,"ldrc_1_015","1","passive_s",FALSE,0,1,"A_first"
"798",22,274.9,274.91,1,"The rabbit jumped in the grass.","sense",5.20686006546,1,"ldrc_1_015","1","active_s",FALSE,1,1,"A_first"
"799",23,289.51,289.52,4,"A flower was milked by a bear.","nonsense",8.05751609802,1,"ldrc_1_015","1","passive_ns",FALSE,1,1,"A_first"
"800",24,303.52,303.53,2,"A chicken shopped at a movie.","nonsense",7.40694689751,1,"ldrc_1_015","1","active_ns",FALSE,1,1,"A_first"
"801",25,319.75,319.77,1,"The actor pulled on a rope.","nonsense",7.27850198746,0,"ldrc_1_015","1","active_s",FALSE,0,1,"A_first"
"802",26,329.89,329.9,1,"A teacher graded a paper.","sense",5.68621397018,1,"ldrc_1_015","1","active_s",FALSE,1,1,"A_first"
"804",27,343.4,343.41,4,"The pig was hugged by a joke.","nonsense",5.78099703789,1,"ldrc_1_015","1","passive_ns",FALSE,1,1,"A_first"
"805",28,353.98,354,2,"A present picked the raccoon.","nonsense",6.80772089958,1,"ldrc_1_015","1","active_ns",FALSE,1,1,"A_first"
"806",29,370.82,370.84,3,"A cake was baked by mom.","sense",6.89292216301,2,"ldrc_1_015","1","passive_s",FALSE,0,1,"A_first"
"808",30,382.44,382.46,4,"The bug was cooked by a key.","nonsense",5.64286804199,1,"ldrc_1_015","1","passive_ns",FALSE,1,1,"A_first"
"809",31,392.48,392.5,2,"The bucket told a horse.","nonsense",6.41170692444,1,"ldrc_1_015","1","active_ns",FALSE,1,1,"A_first"
"810",0,0,0.03,4,"Pasta was waved by a fish.","nonsense",6.0136590004,1,"ldrc_1_015","3","passive_ns",FALSE,1,1,"A_first"
"811",1,10.89,10.91,2,"A joke hugged the dragon.","nonsense",6.24480199814,1,"ldrc_1_015","3","active_ns",FALSE,1,1,"A_first"
"812",2,21.08,21.09,3,"A phone was used by a doctor.","sense",5.82279396057,1,"ldrc_1_015","3","passive_s",FALSE,1,1,"A_first"
"813",3,36.88,36.9,2,"The ear dressed a student.","nonsense",5.58165812492,1,"ldrc_1_015","3","active_ns",FALSE,1,1,"A_first"
"814",4,50.82,50.84,1,"A fly entered the house.","nonsense",5.64095282555,0,"ldrc_1_015","3","active_s",FALSE,0,1,"A_first"
"815",5,61.13,61.14,4,"A cup was cut by the pillow.","nonsense",6.37499189377,1,"ldrc_1_015","3","passive_ns",FALSE,1,1,"A_first"
"816",6,75.94,75.95,3,"Pizza was cooked by the man.","sense",4.03023481369,1,"ldrc_1_015","3","passive_s",FALSE,1,1,"A_first"
"817",7,87.72,87.74,3,"The show was seen by a child.","sense",6.26134896278,1,"ldrc_1_015","3","passive_s",FALSE,1,1,"A_first"
"818",8,99.72,99.72,4,"A chair was tasted by a frame.","nonsense",5.56852006912,1,"ldrc_1_015","3","passive_ns",FALSE,1,1,"A_first"
"819",9,111.38,111.4,4,"Bread was scratched by a tray.","nonsense",7.25359201431,1,"ldrc_1_015","3","passive_ns",FALSE,1,1,"A_first"
"820",10,122.22,122.23,1,"A mouse chewed on the cheese.","sense",4.18489789963,1,"ldrc_1_015","3","active_s",FALSE,1,1,"A_first"
"822",11,134.13,134.14,2,"The couch sang to the duck.","nonsense",8.58047699928,1,"ldrc_1_015","3","active_ns",FALSE,1,1,"A_first"
"823",12,146.54,146.54,2,"The iron borrowed a teacher.","nonsense",6.04157090187,1,"ldrc_1_015","3","active_ns",FALSE,1,1,"A_first"
"824",13,158.49,158.5,3,"A cat was saved by a king.","sense",7.30636096001,1,"ldrc_1_015","3","passive_s",FALSE,1,1,"A_first"
"825",14,169.83,169.85,1,"The queen planted a flower.","nonsense",4.67982387543,0,"ldrc_1_015","3","active_s",FALSE,0,1,"A_first"
"826",15,179.98,179.99,1,"The uncle put sugar in the tea.","nonsense",5.60054802895,0,"ldrc_1_015","3","active_s",FALSE,0,1,"A_first"
"828",16,190.27,190.28,2,"A basement won the family.","nonsense",6.20031499863,1,"ldrc_1_015","3","active_ns",FALSE,1,1,"A_first"
"829",17,200.64,200.65,3,"Soup was served by a woman.","nonsense",5.87474012375,2,"ldrc_1_015","3","passive_s",FALSE,0,1,"A_first"
"831",18,215.75,215.76,1,"A bird dropped the worm.","nonsense",4.6299071312,0,"ldrc_1_015","3","active_s",FALSE,0,1,"A_first"
"832",19,225.84,225.86,3,"A rug was rolled by the actor.","nonsense",8.44717311859,0,"ldrc_1_015","3","passive_s",FALSE,0,1,"A_first"
"833",20,235.87,235.88,1,"The boy cleared off the table.","sense",6.17349696159,1,"ldrc_1_015","3","active_s",FALSE,1,1,"A_first"
"834",21,247.77,247.79,2,"A hen carried the dancer.","nonsense",7.4261469841,1,"ldrc_1_015","3","active_ns",FALSE,1,1,"A_first"
"835",22,257.97,257.99,3,"The lamp was bought by the sister.","nonsense",5.84507799149,0,"ldrc_1_015","3","passive_s",FALSE,0,1,"A_first"
"836",23,268.09,268.09,3,"The shirt was stained by mud.","nonsense",5.72129607201,0,"ldrc_1_015","3","passive_s",FALSE,0,1,"A_first"
"837",24,280.16,280.17,1,"A tiger scared the zebra.","nonsense",5.16393089294,2,"ldrc_1_015","3","active_s",FALSE,0,1,"A_first"
"839",25,296.87,296.89,4,"The girl was told by a fork.","nonsense",6.00187397003,1,"ldrc_1_015","3","passive_ns",FALSE,1,1,"A_first"
"840",26,312.85,312.86,2,"A fence walked to the mother.","nonsense",8.52907299995,1,"ldrc_1_015","3","active_ns",FALSE,1,1,"A_first"
"841",27,330.61,330.62,4,"A rope was sold by the frog.","nonsense",4.86126589775,1,"ldrc_1_015","3","passive_ns",FALSE,1,1,"A_first"
"842",28,343.48,343.49,1,"The banker counted the money.","sense",7.4878320694,1,"ldrc_1_015","3","active_s",FALSE,1,1,"A_first"
"843",29,360.32,360.33,4,"Pie was raised by the letter.","nonsense",8.03308296204,1,"ldrc_1_015","3","passive_ns",FALSE,1,1,"A_first"
"844",30,370.6,370.62,2,"The snake asked for the father.","nonsense",7.68662905693,1,"ldrc_1_015","3","active_ns",FALSE,1,1,"A_first"
"845",31,381.02,381.04,4,"Fire was licked by a banana.","nonsense",5.88725996017,1,"ldrc_1_015","3","passive_ns",FALSE,1,1,"A_first"
"846",0,0,0.03,4,"A hand was built by the ant.","nonsense",4.48092603683,1,"ldrc_1_020","1","passive_ns",FALSE,1,1,"A_first"
"847",1,10.89,10.91,2,"The bread heard a camel.",NA,NA,4,"ldrc_1_020","1","active_ns",FALSE,0,1,"A_first"
"848",2,21.08,21.09,3,"Cheese was chewed by a rat.","sense",7.10674405098,1,"ldrc_1_020","1","passive_s",FALSE,1,1,"A_first"
"849",3,36.88,36.9,2,"The chalk wanted a child.",NA,NA,4,"ldrc_1_020","1","active_ns",FALSE,0,1,"A_first"
"850",4,50.82,50.84,1,"The dog chased the car.","sense",2.30092215538,1,"ldrc_1_020","1","active_s",FALSE,1,1,"A_first"
"851",5,61.13,61.14,4,"A couch was saved by a plum.","nonsense",4.82720208168,1,"ldrc_1_020","1","passive_ns",FALSE,1,1,"A_first"
"852",6,75.94,75.95,3,"The ball was kicked by a girl.","sense",4.59358119965,1,"ldrc_1_020","1","passive_s",FALSE,1,1,"A_first"
"853",7,87.72,87.74,3,"The sock was worn by a baby.","sense",7.15579605103,1,"ldrc_1_020","1","passive_s",FALSE,1,1,"A_first"
"854",8,99.72,99.74,4,"A flower was milked by a bear.","nonsense",5.6271879673,1,"ldrc_1_020","1","passive_ns",FALSE,1,1,"A_first"
"855",9,111.38,111.4,4,"The pig was hugged by a joke.","sense",7.60178613663,0,"ldrc_1_020","1","passive_ns",FALSE,0,1,"A_first"
"856",10,122.22,122.23,1,"A turtle crawled to the water.",NA,NA,4,"ldrc_1_020","1","active_s",FALSE,0,1,"A_first"
"857",11,134.13,134.14,2,"The bucket told a horse.","nonsense",4.48151898384,1,"ldrc_1_020","1","active_ns",FALSE,1,1,"A_first"
"858",12,146.54,146.54,2,"A present picked the raccoon.","sense",6.5479080677,0,"ldrc_1_020","1","active_ns",FALSE,0,1,"A_first"
"859",13,158.49,158.5,3,"A fork was found by the kid.","sense",4.76927185059,1,"ldrc_1_020","1","passive_s",FALSE,1,1,"A_first"
"860",14,169.83,169.84,1,"A teacher graded a paper.","sense",5.18357396126,1,"ldrc_1_020","1","active_s",FALSE,1,1,"A_first"
"861",15,179.98,179.99,1,"The doctor used the phone.","sense",3.33150792122,1,"ldrc_1_020","1","active_s",FALSE,1,1,"A_first"
"862",16,190.27,190.28,2,"A piano planted a brother.","nonsense",5.43243288994,1,"ldrc_1_020","1","active_ns",FALSE,1,1,"A_first"
"863",17,200.64,200.65,3,"A cake was baked by mom.","sense",3.63478589058,1,"ldrc_1_020","1","passive_s",FALSE,1,1,"A_first"
"864",18,215.75,215.76,1,"The actor pulled on a rope.","sense",5.5811650753,1,"ldrc_1_020","1","active_s",FALSE,1,1,"A_first"
"865",19,225.84,225.86,3,"A box was cut by the worker.","sense",4.08607292175,1,"ldrc_1_020","1","passive_s",FALSE,1,1,"A_first"
"866",20,235.87,235.88,1,"The rabbit jumped in the grass.","sense",3.34366083145,1,"ldrc_1_020","1","active_s",FALSE,1,1,"A_first"
"868",21,247.77,247.79,2,"A chicken shopped at a movie.","nonsense",5.87904596329,1,"ldrc_1_020","1","active_ns",FALSE,1,1,"A_first"
"869",22,257.97,257.99,3,"A broom was sold by a farmer.",NA,NA,4,"ldrc_1_020","1","passive_s",FALSE,0,1,"A_first"
"870",23,268.09,268.09,3,"The egg was laid by the duck.","sense",4.58825421333,1,"ldrc_1_020","1","passive_s",FALSE,1,1,"A_first"
"871",24,280.16,280.17,1,"The monkey climbed a tree.","sense",4.29697990417,1,"ldrc_1_020","1","active_s",FALSE,1,1,"A_first"
"872",25,296.87,296.89,4,"Seed was raised by the rug.","nonsense",7.27404308319,1,"ldrc_1_020","1","passive_ns",FALSE,1,1,"A_first"
"873",26,312.85,312.86,2,"The apple watched a king.","nonsense",5.50916600227,1,"ldrc_1_020","1","active_ns",FALSE,1,1,"A_first"
"874",27,330.61,330.62,4,"The bug was cooked by a key.","nonsense",7.6554889679,1,"ldrc_1_020","1","passive_ns",FALSE,1,1,"A_first"
"875",28,343.48,343.49,1,"A cowgirl caught a snake.","sense",5.50386786461,1,"ldrc_1_020","1","active_s",FALSE,1,1,"A_first"
"876",29,360.32,360.33,4,"The dragon was won by clay.",NA,NA,4,"ldrc_1_020","1","passive_ns",FALSE,0,1,"A_first"
"877",30,370.6,370.62,2,"A pillow scratched the fish.","sense",6.17391896248,0,"ldrc_1_020","1","active_ns",FALSE,0,1,"A_first"
"878",31,381.02,381.02,4,"A man was scored by wind.","nonsense",4.91485500336,1,"ldrc_1_020","1","passive_ns",FALSE,1,1,"A_first"
"879",0,0,0.03,1,"A bird dropped the worm.","sense",3.18843483925,1,"ldrc_1_020","3","active_s",FALSE,1,1,"A_first"
"880",1,10.16,10.17,2,"The couch sang to the duck.","sense",3.99725103378,0,"ldrc_1_020","3","active_ns",FALSE,0,1,"A_first"
"881",2,25.97,25.98,3,"The show was seen by a child.","sense",4.38621592522,1,"ldrc_1_020","3","passive_s",FALSE,1,1,"A_first"
"882",3,40.97,40.98,3,"A rug was rolled by the actor.","sense",4.13044714928,1,"ldrc_1_020","3","passive_s",FALSE,1,1,"A_first"
"883",4,53.69,53.71,2,"A hen carried the dancer.","sense",4.66395401955,0,"ldrc_1_020","3","active_ns",FALSE,0,1,"A_first"
"884",5,64.57,64.58,3,"Pizza was cooked by the man.","sense",3.66007590294,1,"ldrc_1_020","3","passive_s",FALSE,1,1,"A_first"
"885",6,75.24,75.25,4,"A chair was tasted by a frame.","nonsense",4.09143209457,1,"ldrc_1_020","3","passive_ns",FALSE,1,1,"A_first"
"886",7,86.91,86.92,1,"The uncle put sugar in the tea.","sense",4.7603700161,1,"ldrc_1_020","3","active_s",FALSE,1,1,"A_first"
"887",8,103.03,103.04,2,"A fence walked to the mother.","sense",3.9795050621,0,"ldrc_1_020","3","active_ns",FALSE,0,1,"A_first"
"889",9,118.89,118.9,4,"Fire was licked by a banana.","nonsense",5.66842103004,1,"ldrc_1_020","3","passive_ns",FALSE,1,1,"A_first"
"890",10,128.92,128.94,1,"A fly entered the house.","nonsense",4.40219688416,0,"ldrc_1_020","3","active_s",FALSE,0,1,"A_first"
