"","TrialNum","Onset","TrueOns","cond","Stim","Resp","RT","StopTrial","SSD","correct","subind","runnum","first","group_num","group"
"1",0,0,0.02,1,1,"4",0.852225,0,0,1,"ldrc_0_009","1",0,1,"A_first"
"2",1,2,2.02,1,1,"4",0.584103,0,0,1,"ldrc_0_009","1",1,1,"A_first"
"3",2,5,5.02,1,1,"4",0.533144,0,0,1,"ldrc_0_009","1",1,1,"A_first"
"4",3,12,12,0,0,"1",0.437186,0,0,1,"ldrc_0_009","1",1,1,"A_first"
"5",4,14,14.01,3,1,"4",0.414442,1,0.25,3,"ldrc_0_009","1",1,1,"A_first"
"6",5,16,16.01,3,1,"1",0.446593,1,0.2,2,"ldrc_0_009","1",1,1,"A_first"
"7",6,18,18.01,2,0,"1",0.467788,1,0.15,3,"ldrc_0_009","1",1,1,"A_first"
"8",7,21,21.01,0,0,"1",0.512606,0,0,1,"ldrc_0_009","1",1,1,"A_first"
"9",8,23,23.01,1,1,"4",0.351151,0,0,1,"ldrc_0_009","1",1,1,"A_first"
"10",9,25,25.01,0,0,"1",0.469237,0,0,1,"ldrc_0_009","1",1,1,"A_first"
"11",10,34,34.01,0,0,"1",0.516702,0,0,1,"ldrc_0_009","1",1,1,"A_first"
"12",11,36,36.01,1,1,"4",0.57494,0,0,1,"ldrc_0_009","1",1,1,"A_first"
"13",12,39,39.02,1,1,"4",0.517812,0,0,1,"ldrc_0_009","1",1,1,"A_first"
"14",13,41,41.02,0,0,"1",0.353151,0,0,1,"ldrc_0_009","1",1,1,"A_first"
"15",14,43,43.02,0,0,"1",0.59424,0,0,1,"ldrc_0_009","1",1,1,"A_first"
"16",15,46,46,0,0,"1",0.539716,0,0,1,"ldrc_0_009","1",1,1,"A_first"
"17",16,48,48,1,1,"4",0.50292,0,0,1,"ldrc_0_009","1",1,1,"A_first"
"18",17,51,51,1,1,"4",0.496816,0,0,1,"ldrc_0_009","1",1,1,"A_first"
"19",18,56,56.01,3,1,"0",0,1,0.1,4,"ldrc_0_009","1",1,1,"A_first"
"20",19,58,58.01,3,1,"0",0,1,0.15,4,"ldrc_0_009","1",1,1,"A_first"
"21",20,61,61.01,0,0,"1",0.468017,0,0,1,"ldrc_0_009","1",1,1,"A_first"
"22",21,63,63.01,3,1,"0",0,1,0.2,4,"ldrc_0_009","1",1,1,"A_first"
"23",22,66,66.01,1,1,"4",0.546205,0,0,1,"ldrc_0_009","1",1,1,"A_first"
"24",23,69,69.01,1,1,"4",0.485977,0,0,1,"ldrc_0_009","1",1,1,"A_first"
"25",24,71,71.01,0,0,"1",0.482038,0,0,1,"ldrc_0_009","1",1,1,"A_first"
"26",25,73,73.01,0,0,"1",0.45163,0,0,1,"ldrc_0_009","1",1,1,"A_first"
"27",26,75,75.01,0,0,"4",0.354747,0,0,0,"ldrc_0_009","1",1,1,"A_first"
"28",27,77,77.01,1,1,"4",0.430071,0,0,1,"ldrc_0_009","1",1,1,"A_first"
"29",28,79,79.02,1,1,"4",0.754207,0,0,1,"ldrc_0_009","1",1,1,"A_first"
"30",29,81,81.02,1,1,"4",0.417568,0,0,1,"ldrc_0_009","1",1,1,"A_first"
"31",30,83,83.02,0,0,"1",0.460749,0,0,1,"ldrc_0_009","1",1,1,"A_first"
"32",31,86,86.02,2,0,"1",0.419581,1,0.25,3,"ldrc_0_009","1",1,1,"A_first"
"33",32,88,88,2,0,"0",0,1,0.2,4,"ldrc_0_009","1",1,1,"A_first"
"34",33,90,90,3,1,"4",0.466639,1,0.25,3,"ldrc_0_009","1",1,1,"A_first"
"35",34,93,93,1,1,"4",0.486497,0,0,1,"ldrc_0_009","1",1,1,"A_first"
"36",35,95,95.01,1,1,"4",0.465776,0,0,1,"ldrc_0_009","1",1,1,"A_first"
"37",36,97,97.01,1,1,"4",0.660059,0,0,1,"ldrc_0_009","1",1,1,"A_first"
"38",37,100,100.01,0,0,"1",0.542853,0,0,1,"ldrc_0_009","1",1,1,"A_first"
"39",38,103,103.01,0,0,"1",0.640537,0,0,1,"ldrc_0_009","1",1,1,"A_first"
"40",39,105,105.01,0,0,"1",0.629097,0,0,1,"ldrc_0_009","1",1,1,"A_first"
"41",40,108,108.01,0,0,"1",0.446899,0,0,1,"ldrc_0_009","1",1,1,"A_first"
"42",41,110,110.01,0,0,"1",0.392019,0,0,1,"ldrc_0_009","1",1,1,"A_first"
"43",42,112,112.01,2,0,"1",0.438317,1,0.2,3,"ldrc_0_009","1",1,1,"A_first"
"44",43,114,114.01,3,1,"0",0,1,0.15,4,"ldrc_0_009","1",1,1,"A_first"
"45",44,116,116.01,3,1,"0",0,1,0.2,4,"ldrc_0_009","1",1,1,"A_first"
"46",45,121,121.02,1,1,"4",0.553788,0,0,1,"ldrc_0_009","1",1,1,"A_first"
"47",46,123,123.02,1,1,"4",0.619063,0,0,1,"ldrc_0_009","1",1,1,"A_first"
"48",47,125,125.02,1,1,"4",0.705339,0,0,1,"ldrc_0_009","1",1,1,"A_first"
"49",48,128,128,0,0,"1",0.434781,0,0,1,"ldrc_0_009","1",1,1,"A_first"
"50",49,130,130,3,1,"4",0.481962,1,0.25,3,"ldrc_0_009","1",1,1,"A_first"
"51",50,132,132,0,0,"1",0.667191,0,0,1,"ldrc_0_009","1",1,1,"A_first"
"52",51,134,134,1,1,"4",0.666544,0,0,1,"ldrc_0_009","1",1,1,"A_first"
"53",52,136,136.01,0,0,"1",0.45867,0,0,1,"ldrc_0_009","1",1,1,"A_first"
"54",53,139,139.01,2,0,"0",0,1,0.2,4,"ldrc_0_009","1",1,1,"A_first"
"55",54,144,144.01,0,0,"1",0.4157,0,0,1,"ldrc_0_009","1",1,1,"A_first"
"56",55,147,147.01,0,0,"1",0.492555,0,0,1,"ldrc_0_009","1",1,1,"A_first"
"57",56,149,149.01,1,1,"4",0.756771,0,0,1,"ldrc_0_009","1",1,1,"A_first"
"58",57,153,153.01,1,1,"4",0.660245,0,0,1,"ldrc_0_009","1",1,1,"A_first"
"59",58,155,155.01,0,0,"1",0.393459,0,0,1,"ldrc_0_009","1",1,1,"A_first"
"60",59,157,157.01,3,1,"4",0.430769,1,0.25,3,"ldrc_0_009","1",1,1,"A_first"
"61",60,163,163.02,1,1,"4",0.503441,0,0,1,"ldrc_0_009","1",1,1,"A_first"
"62",61,165,165.02,0,0,"1",0.506734,0,0,1,"ldrc_0_009","1",1,1,"A_first"
"63",62,167,167,0,0,"0",0,0,0,5,"ldrc_0_009","1",1,1,"A_first"
"64",63,169,169,1,1,"1",0.468871,0,0,0,"ldrc_0_009","1",1,1,"A_first"
"65",64,174,174,0,0,"1",0.474934,0,0,1,"ldrc_0_009","1",1,1,"A_first"
"66",65,177,177.01,0,0,"1",0.55876,0,0,1,"ldrc_0_009","1",1,1,"A_first"
"67",66,179,179.01,1,1,"4",0.49016,0,0,1,"ldrc_0_009","1",1,1,"A_first"
"68",67,181,181.01,0,0,"1",0.566279,0,0,1,"ldrc_0_009","1",1,1,"A_first"
"69",68,183,183.01,1,1,"4",0.667512,0,0,1,"ldrc_0_009","1",1,1,"A_first"
"70",69,186,186.01,3,1,"0",0,1,0.2,4,"ldrc_0_009","1",1,1,"A_first"
"71",70,188,188.01,3,1,"4",0.488549,1,0.25,3,"ldrc_0_009","1",1,1,"A_first"
"72",71,192,192.01,0,0,"1",0.448988,0,0,1,"ldrc_0_009","1",1,1,"A_first"
"73",72,195,195.01,0,0,"1",0.429953,0,0,1,"ldrc_0_009","1",1,1,"A_first"
"74",73,197,197.01,3,1,"0",0,1,0.2,4,"ldrc_0_009","1",1,1,"A_first"
"75",74,199,199.01,1,1,"4",0.476183,0,0,1,"ldrc_0_009","1",1,1,"A_first"
"76",75,203,203.02,0,0,"1",0.669967,0,0,1,"ldrc_0_009","1",1,1,"A_first"
"77",76,206,206.02,0,0,"4",0.354674,0,0,0,"ldrc_0_009","1",1,1,"A_first"
"78",77,208,208,1,1,"4",0.939606,0,0,1,"ldrc_0_009","1",1,1,"A_first"
"79",78,210,210,0,0,"1",0.490765,0,0,1,"ldrc_0_009","1",1,1,"A_first"
"80",79,214,214,3,1,"4",0.406227,1,0.25,3,"ldrc_0_009","1",1,1,"A_first"
"81",80,217,217.01,2,0,"1",0.322116,1,0.2,3,"ldrc_0_009","1",1,1,"A_first"
"82",81,219,219.01,0,0,"1",0.837473,0,0,1,"ldrc_0_009","1",1,1,"A_first"
"83",82,221,221.01,1,1,"4",0.536578,0,0,1,"ldrc_0_009","1",1,1,"A_first"
"84",83,223,223.01,0,0,"1",0.515944,0,0,1,"ldrc_0_009","1",1,1,"A_first"
"85",84,225,225.01,0,0,"1",0.622054,0,0,1,"ldrc_0_009","1",1,1,"A_first"
"86",85,227,227.01,1,1,"4",0.458293,0,0,1,"ldrc_0_009","1",1,1,"A_first"
"87",86,230,230.01,1,1,"4",0.581097,0,0,1,"ldrc_0_009","1",1,1,"A_first"
"88",87,232,232.01,1,1,"4",0.585379,0,0,1,"ldrc_0_009","1",1,1,"A_first"
"89",88,234,234.01,0,0,"1",0.5446,0,0,1,"ldrc_0_009","1",1,1,"A_first"
"90",89,238,238.01,0,0,"1",0.507085,0,0,1,"ldrc_0_009","1",1,1,"A_first"
"91",90,240,240.01,0,0,"1",0.527319,0,0,1,"ldrc_0_009","1",1,1,"A_first"
"92",91,242,242.02,0,0,"1",0.5996,0,0,1,"ldrc_0_009","1",1,1,"A_first"
"93",92,249,249.02,1,1,"4",0.459935,0,0,1,"ldrc_0_009","1",1,1,"A_first"
"94",93,253,253,1,1,"1",0.389042,0,0,0,"ldrc_0_009","1",1,1,"A_first"
"95",94,257,257,2,0,"0",0,1,0.15,4,"ldrc_0_009","1",1,1,"A_first"
"96",95,259,259.01,3,1,"0",0,1,0.2,4,"ldrc_0_009","1",1,1,"A_first"
"97",96,261,261.01,2,0,"1",0.447086,1,0.25,3,"ldrc_0_009","1",1,1,"A_first"
"98",97,265,265.01,0,0,"4",0.910565,0,0,0,"ldrc_0_009","1",1,1,"A_first"
"99",98,271,271.01,2,0,"0",0,1,0.2,4,"ldrc_0_009","1",1,1,"A_first"
"100",99,276,276.01,2,0,"0",0,1,0.25,4,"ldrc_0_009","1",1,1,"A_first"
"101",100,278,278.01,2,0,"0",0,1,0.3,4,"ldrc_0_009","1",1,1,"A_first"
"102",101,280,280.01,1,1,"4",0.482716,0,0,1,"ldrc_0_009","1",1,1,"A_first"
"103",102,282,282.02,1,1,"4",0.44596,0,0,1,"ldrc_0_009","1",1,1,"A_first"
"104",103,284,284.02,0,0,"1",0.621256,0,0,1,"ldrc_0_009","1",1,1,"A_first"
"105",104,286,286.02,1,1,"4",0.711413,0,0,1,"ldrc_0_009","1",1,1,"A_first"
"106",105,288,288.02,1,1,"4",0.50366,0,0,1,"ldrc_0_009","1",1,1,"A_first"
"107",106,291,291,2,0,"0",0,1,0.35,4,"ldrc_0_009","1",1,1,"A_first"
"108",107,295,295,0,0,"1",0.668506,0,0,1,"ldrc_0_009","1",1,1,"A_first"
"109",108,298,298.01,2,0,"1",0.530553,1,0.4,3,"ldrc_0_009","1",1,1,"A_first"
"110",109,300,300.01,2,0,"1",0.393722,1,0.35,3,"ldrc_0_009","1",1,1,"A_first"
"111",110,302,302.01,0,0,"1",0.449927,0,0,1,"ldrc_0_009","1",1,1,"A_first"
"112",111,305,305.01,1,1,"4",0.489745,0,0,1,"ldrc_0_009","1",1,1,"A_first"
"113",112,307,307.01,1,1,"4",0.487118,0,0,1,"ldrc_0_009","1",1,1,"A_first"
"114",113,309,309.01,0,0,"1",0.430237,0,0,1,"ldrc_0_009","1",1,1,"A_first"
"115",114,312,312.01,3,1,"4",0.480173,1,0.3,3,"ldrc_0_009","1",1,1,"A_first"
"116",115,317,317.01,0,0,"1",0.43335,0,0,1,"ldrc_0_009","1",1,1,"A_first"
"117",116,319,319.01,1,1,"4",0.70858,0,0,1,"ldrc_0_009","1",1,1,"A_first"
"118",117,321,321.01,0,0,"1",0.653728,0,0,1,"ldrc_0_009","1",1,1,"A_first"
"119",118,323,323.02,0,0,"1",0.568102,0,0,1,"ldrc_0_009","1",1,1,"A_first"
"120",119,325,325.02,1,1,"4",0.33529,0,0,1,"ldrc_0_009","1",1,1,"A_first"
"121",120,329,329.02,2,0,"1",0.44677,1,0.25,3,"ldrc_0_009","1",1,1,"A_first"
"122",121,331,331,1,1,"4",0.496683,0,0,1,"ldrc_0_009","1",1,1,"A_first"
"123",122,335,335,1,1,"4",0.534872,0,0,1,"ldrc_0_009","1",1,1,"A_first"
"124",123,337,337,1,1,"4",0.450308,0,0,1,"ldrc_0_009","1",1,1,"A_first"
"125",124,339,339.01,1,1,"4",0.612602,0,0,1,"ldrc_0_009","1",1,1,"A_first"
"126",125,341,341.01,1,1,"4",0.840892,0,0,1,"ldrc_0_009","1",1,1,"A_first"
"127",126,343,343.01,1,1,"4",0.358025,0,0,1,"ldrc_0_009","1",1,1,"A_first"
"128",127,348,348.01,2,0,"1",0.484016,1,0.2,3,"ldrc_0_009","1",1,1,"A_first"
"129",0,0,0.02,0,0,"1",0.603099,0,0,1,"ldrc_0_009","2",1,1,"A_first"
"130",1,2,2.02,0,0,"1",0.482131,0,0,1,"ldrc_0_009","2",1,1,"A_first"
"131",2,6,6,0,0,"1",0.472151,0,0,1,"ldrc_0_009","2",1,1,"A_first"
"132",3,8,8,1,1,"4",0.363725,0,0,1,"ldrc_0_009","2",1,1,"A_first"
"133",4,10,10,1,1,"4",0.501971,0,0,1,"ldrc_0_009","2",1,1,"A_first"
"134",5,12,12,1,1,"4",0.75421,0,0,1,"ldrc_0_009","2",1,1,"A_first"
"135",6,14,14.01,1,1,"4",0.405346,0,0,1,"ldrc_0_009","2",1,1,"A_first"
"136",7,16,16.01,1,1,"4",0.473722,0,0,1,"ldrc_0_009","2",1,1,"A_first"
"137",8,19,19.01,1,1,"4",0.461482,0,0,1,"ldrc_0_009","2",1,1,"A_first"
"138",9,21,21.01,0,0,"1",0.435803,0,0,1,"ldrc_0_009","2",1,1,"A_first"
"139",10,24,24.01,2,0,"1",0.527704,1,0.25,3,"ldrc_0_009","2",1,1,"A_first"
"140",11,29,29.01,3,1,"4",0.471794,1,0.2,3,"ldrc_0_009","2",1,1,"A_first"
"141",12,31,31.01,0,0,"1",0.694052,0,0,1,"ldrc_0_009","2",1,1,"A_first"
"142",13,33,33.01,1,1,"4",0.431233,0,0,1,"ldrc_0_009","2",1,1,"A_first"
"143",14,35,35.01,3,1,"0",0,1,0.15,4,"ldrc_0_009","2",1,1,"A_first"
"144",15,38,38.02,1,1,"4",0.536406,0,0,1,"ldrc_0_009","2",1,1,"A_first"
"145",16,40,40.02,1,1,"4",0.655462,0,0,1,"ldrc_0_009","2",1,1,"A_first"
"146",17,42,42.02,3,1,"0",0,1,0.2,4,"ldrc_0_009","2",1,1,"A_first"
"147",18,44,44.02,1,1,"4",0.498988,0,0,1,"ldrc_0_009","2",1,1,"A_first"
"148",19,46,46,1,1,"4",0.430656,0,0,1,"ldrc_0_009","2",1,1,"A_first"
"149",20,52,52,1,1,"4",0.507585,0,0,1,"ldrc_0_009","2",1,1,"A_first"
"150",21,55,55.01,1,1,"4",0.49742,0,0,1,"ldrc_0_009","2",1,1,"A_first"
"151",22,57,57.01,1,1,"4",0.583696,0,0,1,"ldrc_0_009","2",1,1,"A_first"
"152",23,59,59.01,0,0,"4",0.747001,0,0,0,"ldrc_0_009","2",1,1,"A_first"
"153",24,61,61.01,0,0,"1",0.874285,0,0,1,"ldrc_0_009","2",1,1,"A_first"
"154",25,63,63.01,1,1,"4",0.580211,0,0,1,"ldrc_0_009","2",1,1,"A_first"
"155",26,65,65.01,0,0,"1",0.913599,0,0,1,"ldrc_0_009","2",1,1,"A_first"
"156",27,68,68.01,1,1,"4",0.487474,0,0,1,"ldrc_0_009","2",1,1,"A_first"
"157",28,71,71.01,0,0,"1",0.465328,0,0,1,"ldrc_0_009","2",1,1,"A_first"
"158",29,73,73.01,1,1,"4",0.484624,0,0,1,"ldrc_0_009","2",1,1,"A_first"
"159",30,80,80.02,2,0,"0",0,1,0.25,4,"ldrc_0_009","2",1,1,"A_first"
"160",31,87,87.02,2,0,"0",0,1,0.3,4,"ldrc_0_009","2",1,1,"A_first"
"161",32,89,89,1,1,"4",0.628286,0,0,1,"ldrc_0_009","2",1,1,"A_first"
"162",33,91,91,3,1,"4",0.484451,1,0.35,3,"ldrc_0_009","2",1,1,"A_first"
"163",34,94,94,2,0,"0",0,1,0.3,4,"ldrc_0_009","2",1,1,"A_first"
"164",35,96,96.01,0,0,"1",0.547433,0,0,1,"ldrc_0_009","2",1,1,"A_first"
"165",36,98,98.01,1,1,"4",0.462523,0,0,1,"ldrc_0_009","2",1,1,"A_first"
"166",37,100,100.01,0,0,"1",0.699076,0,0,1,"ldrc_0_009","2",1,1,"A_first"
"167",38,103,103.01,0,0,"1",0.602015,0,0,1,"ldrc_0_009","2",1,1,"A_first"
"168",39,106,106.01,2,0,"1",0.460708,1,0.35,3,"ldrc_0_009","2",1,1,"A_first"
"169",40,108,108.01,0,0,"1",0.50589,0,0,1,"ldrc_0_009","2",1,1,"A_first"
"170",41,111,111.01,0,0,"1",0.491704,0,0,1,"ldrc_0_009","2",1,1,"A_first"
"171",42,113,113.01,3,1,"4",0.501954,1,0.3,3,"ldrc_0_009","2",1,1,"A_first"
"172",43,115,115.01,2,0,"0",0,1,0.25,4,"ldrc_0_009","2",1,1,"A_first"
"173",44,118,118.01,3,1,"0",0,1,0.3,4,"ldrc_0_009","2",1,1,"A_first"
"174",45,120,120.02,1,1,"4",0.59026,0,0,1,"ldrc_0_009","2",1,1,"A_first"
"175",46,124,124.02,1,1,"4",0.597114,0,0,1,"ldrc_0_009","2",1,1,"A_first"
"176",47,126,126.02,0,0,"1",0.463975,0,0,1,"ldrc_0_009","2",1,1,"A_first"
"177",48,128,128,0,0,"0",0,0,0,5,"ldrc_0_009","2",1,1,"A_first"
"178",49,130,130,2,0,"1",0.499177,1,0.35,3,"ldrc_0_009","2",1,1,"A_first"
"179",50,132,132,3,1,"4",0.524214,1,0.3,3,"ldrc_0_009","2",1,1,"A_first"
"180",51,134,134,3,1,"0",0,1,0.25,4,"ldrc_0_009","2",1,1,"A_first"
"181",52,136,136.01,0,0,"1",0.51478,0,0,1,"ldrc_0_009","2",1,1,"A_first"
"182",53,139,139.01,1,1,"4",0.626758,0,0,1,"ldrc_0_009","2",1,1,"A_first"
"183",54,142,142.01,0,0,"1",0.449561,0,0,1,"ldrc_0_009","2",1,1,"A_first"
"184",55,144,144.01,1,1,"4",0.477888,0,0,1,"ldrc_0_009","2",1,1,"A_first"
"185",56,146,146.01,1,1,"4",0.669944,0,0,1,"ldrc_0_009","2",1,1,"A_first"
"186",57,148,148.01,0,0,"1",0.480193,0,0,1,"ldrc_0_009","2",1,1,"A_first"
"187",58,150,150.01,1,1,"4",0.438561,0,0,1,"ldrc_0_009","2",1,1,"A_first"
"188",59,152,152.01,0,0,"1",0.532686,0,0,1,"ldrc_0_009","2",1,1,"A_first"
"189",60,154,154.01,0,0,"1",0.540973,0,0,1,"ldrc_0_009","2",1,1,"A_first"
"190",61,158,158.01,3,1,"0",0,1,0.3,4,"ldrc_0_009","2",1,1,"A_first"
"191",62,161,161.02,2,0,"1",0.551422,1,0.35,3,"ldrc_0_009","2",1,1,"A_first"
"192",63,163,163.02,2,0,"0",0,1,0.3,4,"ldrc_0_009","2",1,1,"A_first"
"193",64,171,171.02,0,0,"1",0.896204,0,0,1,"ldrc_0_009","2",1,1,"A_first"
"194",65,176,176,1,1,"4",0.956266,0,0,1,"ldrc_0_009","2",1,1,"A_first"
"195",66,179,179.01,0,0,"1",0.425107,0,0,1,"ldrc_0_009","2",1,1,"A_first"
"196",67,184,184.01,0,0,"1",0.525139,0,0,1,"ldrc_0_009","2",1,1,"A_first"
"197",68,186,186.01,0,0,"1",0.711372,0,0,1,"ldrc_0_009","2",1,1,"A_first"
"198",69,190,190.01,0,0,"1",0.459798,0,0,1,"ldrc_0_009","2",1,1,"A_first"
"199",70,192,192.01,1,1,"4",0.83607,0,0,1,"ldrc_0_009","2",1,1,"A_first"
"200",71,194,194.01,1,1,"4",0.423137,0,0,1,"ldrc_0_009","2",1,1,"A_first"
"201",72,196,196.01,1,1,"4",0.526569,0,0,1,"ldrc_0_009","2",1,1,"A_first"
"202",73,199,199.01,2,0,"1",0.444475,1,0.35,3,"ldrc_0_009","2",1,1,"A_first"
"203",74,201,201.02,3,1,"4",0.360641,1,0.3,3,"ldrc_0_009","2",1,1,"A_first"
"204",75,204,204.02,2,0,"1",0.528509,1,0.25,3,"ldrc_0_009","2",1,1,"A_first"
"205",76,207,207.02,1,1,"4",0.588375,0,0,1,"ldrc_0_009","2",1,1,"A_first"
"206",77,211,211,1,1,"4",0.487618,0,0,1,"ldrc_0_009","2",1,1,"A_first"
"207",78,214,214,0,0,"1",0.563346,0,0,1,"ldrc_0_009","2",1,1,"A_first"
"208",79,216,216,0,0,"1",0.580561,0,0,1,"ldrc_0_009","2",1,1,"A_first"
"209",80,219,219.01,0,0,"1",0.525464,0,0,1,"ldrc_0_009","2",1,1,"A_first"
"210",81,221,221.01,0,0,"1",0.652791,0,0,1,"ldrc_0_009","2",1,1,"A_first"
"211",82,225,225.01,3,1,"0",0,1,0.2,4,"ldrc_0_009","2",1,1,"A_first"
"212",83,227,227.01,1,1,"4",0.776414,0,0,1,"ldrc_0_009","2",1,1,"A_first"
"213",84,229,229.01,3,1,"0",0,1,0.25,4,"ldrc_0_009","2",1,1,"A_first"
"214",85,231,231.01,2,0,"1",0.426953,1,0.3,3,"ldrc_0_009","2",1,1,"A_first"
"215",86,233,233.01,3,1,"0",0,1,0.25,4,"ldrc_0_009","2",1,1,"A_first"
"216",87,238,238.01,1,1,"4",0.590224,0,0,1,"ldrc_0_009","2",1,1,"A_first"
"217",88,240,240.01,1,1,"4",0.5662,0,0,1,"ldrc_0_009","2",1,1,"A_first"
"218",89,244,244.02,1,1,"4",0.486877,0,0,1,"ldrc_0_009","2",1,1,"A_first"
"219",90,246,246.02,0,0,"1",0.455979,0,0,1,"ldrc_0_009","2",1,1,"A_first"
"220",91,248,248.02,1,1,"4",0.387362,0,0,1,"ldrc_0_009","2",1,1,"A_first"
"221",92,250,250,1,1,"4",0.46522,0,0,1,"ldrc_0_009","2",1,1,"A_first"
"222",93,252,252,1,1,"4",0.416426,0,0,1,"ldrc_0_009","2",1,1,"A_first"
"223",94,255,255,2,0,"1",0.533404,1,0.3,3,"ldrc_0_009","2",1,1,"A_first"
"224",95,257,257.01,1,1,"4",0.45062,0,0,1,"ldrc_0_009","2",1,1,"A_first"
"225",96,259,259.01,0,0,"1",0.525949,0,0,1,"ldrc_0_009","2",1,1,"A_first"
"226",97,261,261.01,0,0,"1",0.601056,0,0,1,"ldrc_0_009","2",1,1,"A_first"
"227",98,263,263.01,3,1,"0",0,1,0.25,4,"ldrc_0_009","2",1,1,"A_first"
"228",99,265,265.01,0,0,"1",0.350623,0,0,1,"ldrc_0_009","2",1,1,"A_first"
"229",100,267,267.01,1,1,"4",0.451845,0,0,1,"ldrc_0_009","2",1,1,"A_first"
"230",101,269,269.01,0,0,"1",0.510089,0,0,1,"ldrc_0_009","2",1,1,"A_first"
"231",102,274,274.01,3,1,"4",0.4563,1,0.3,3,"ldrc_0_009","2",1,1,"A_first"
"232",103,276,276.01,2,0,"1",0.058283,1,0.25,3,"ldrc_0_009","2",1,1,"A_first"
"233",104,279,279.01,0,0,"1",0.589316,0,0,1,"ldrc_0_009","2",1,1,"A_first"
"234",105,281,281.01,0,0,"1",0.571568,0,0,1,"ldrc_0_009","2",1,1,"A_first"
"235",106,286,286.02,1,1,"4",0.463543,0,0,1,"ldrc_0_009","2",1,1,"A_first"
"236",107,290,290.02,1,1,"4",0.515007,0,0,1,"ldrc_0_009","2",1,1,"A_first"
"237",108,293,293,0,0,"1",0.552547,0,0,1,"ldrc_0_009","2",1,1,"A_first"
"238",109,295,295,0,0,"1",0.653748,0,0,1,"ldrc_0_009","2",1,1,"A_first"
"239",110,297,297,1,1,"4",0.522093,0,0,1,"ldrc_0_009","2",1,1,"A_first"
"240",111,300,300.01,0,0,"1",0.591914,0,0,1,"ldrc_0_009","2",1,1,"A_first"
"241",112,302,302.01,0,0,"1",0.901114,0,0,1,"ldrc_0_009","2",1,1,"A_first"
"242",113,308,308.01,3,1,"0",0,1,0.2,4,"ldrc_0_009","2",1,1,"A_first"
"243",114,310,310.01,0,0,"1",0.554041,0,0,1,"ldrc_0_009","2",1,1,"A_first"
"244",115,312,312.01,2,0,"0",0,1,0.25,4,"ldrc_0_009","2",1,1,"A_first"
"245",116,314,314.01,0,0,"1",0.868511,0,0,1,"ldrc_0_009","2",1,1,"A_first"
"246",117,316,316.01,0,0,"1",0.68573,0,0,1,"ldrc_0_009","2",1,1,"A_first"
"247",118,318,318.01,0,0,"1",0.92483,0,0,1,"ldrc_0_009","2",1,1,"A_first"
"248",119,324,324.02,1,1,"4",0.735474,0,0,1,"ldrc_0_009","2",1,1,"A_first"
"249",120,326,326.02,1,1,"0",0,0,0,5,"ldrc_0_009","2",1,1,"A_first"
"250",121,329,329.02,0,0,"1",0.399843,0,0,1,"ldrc_0_009","2",1,1,"A_first"
"251",122,331,331,0,0,"1",0.586591,0,0,1,"ldrc_0_009","2",1,1,"A_first"
"252",123,333,333,1,1,"4",0.373762,0,0,1,"ldrc_0_009","2",1,1,"A_first"
"253",124,337,337,1,1,"4",0.525318,0,0,1,"ldrc_0_009","2",1,1,"A_first"
"254",125,339,339.01,2,0,"1",0.590877,1,0.3,3,"ldrc_0_009","2",1,1,"A_first"
"255",126,344,344.01,1,1,"4",0.723753,0,0,1,"ldrc_0_009","2",1,1,"A_first"
"256",127,346,346.01,0,0,"1",0.825742,0,0,1,"ldrc_0_009","2",1,1,"A_first"
"257",0,0,0.02,1,1,"0",0,0,0,5,"ldrc_0_018","1",1,1,"A_first"
"258",1,2,2.02,1,1,"1",0.362277,0,0,0,"ldrc_0_018","1",1,1,"A_first"
"259",2,5,5.02,1,1,"4",0.386158,0,0,1,"ldrc_0_018","1",1,1,"A_first"
"260",3,12,12,0,0,"1",0.441177,0,0,1,"ldrc_0_018","1",1,1,"A_first"
"261",4,14,14.01,3,1,"4",0.426486,1,0.25,3,"ldrc_0_018","1",1,1,"A_first"
"262",5,16,16.01,3,1,"4",0.558631,1,0.2,3,"ldrc_0_018","1",1,1,"A_first"
"263",6,18,18.01,2,0,"1",0.485038,1,0.15,3,"ldrc_0_018","1",1,1,"A_first"
"264",7,21,21.01,0,0,"1",0.570834,0,0,1,"ldrc_0_018","1",1,1,"A_first"
"265",8,23,23.01,1,1,"4",0.560981,0,0,1,"ldrc_0_018","1",1,1,"A_first"
"266",9,25,25.01,0,0,"1",0.905299,0,0,1,"ldrc_0_018","1",1,1,"A_first"
"267",10,34,34.01,0,0,"1",0.636712,0,0,1,"ldrc_0_018","1",1,1,"A_first"
"268",11,36,36.01,1,1,"4",0.775054,0,0,1,"ldrc_0_018","1",1,1,"A_first"
"269",12,39,39.02,1,1,"4",0.500777,0,0,1,"ldrc_0_018","1",1,1,"A_first"
"270",13,41,41.02,0,0,"1",0.422073,0,0,1,"ldrc_0_018","1",1,1,"A_first"
"271",14,43,43.02,0,0,"1",0.534317,0,0,1,"ldrc_0_018","1",1,1,"A_first"
"272",15,46,46,0,0,"1",0.574749,0,0,1,"ldrc_0_018","1",1,1,"A_first"
"273",16,48,48,1,1,"4",0.492997,0,0,1,"ldrc_0_018","1",1,1,"A_first"
"274",17,51,51,1,1,"4",0.489898,0,0,1,"ldrc_0_018","1",1,1,"A_first"
"275",18,56,56.01,3,1,"0",0,1,0.1,4,"ldrc_0_018","1",1,1,"A_first"
"276",19,58,58.01,3,1,"0",0,1,0.15,4,"ldrc_0_018","1",1,1,"A_first"
"277",20,61,61.01,0,0,"1",0.549989,0,0,1,"ldrc_0_018","1",1,1,"A_first"
"278",21,63,63.01,3,1,"0",0,1,0.2,4,"ldrc_0_018","1",1,1,"A_first"
"279",22,66,66.01,1,1,"4",0.447204,0,0,1,"ldrc_0_018","1",1,1,"A_first"
"280",23,69,69.01,1,1,"4",0.515086,0,0,1,"ldrc_0_018","1",1,1,"A_first"
"281",24,71,71.01,0,0,"1",0.73116,0,0,1,"ldrc_0_018","1",1,1,"A_first"
"282",25,73,73.01,0,0,"1",0.631553,0,0,1,"ldrc_0_018","1",1,1,"A_first"
"283",26,75,75.01,0,0,"1",0.701594,0,0,1,"ldrc_0_018","1",1,1,"A_first"
"284",27,77,77.01,1,1,"4",0.544909,0,0,1,"ldrc_0_018","1",1,1,"A_first"
"285",28,79,79.02,1,1,"4",0.44439,0,0,1,"ldrc_0_018","1",1,1,"A_first"
"286",29,81,81.02,1,1,"4",0.470434,0,0,1,"ldrc_0_018","1",1,1,"A_first"
"287",30,83,83.02,0,0,"1",0.573695,0,0,1,"ldrc_0_018","1",1,1,"A_first"
"288",31,86,86,2,0,"1",0.538179,1,0.25,3,"ldrc_0_018","1",1,1,"A_first"
"289",32,88,88,2,0,"0",0,1,0.2,4,"ldrc_0_018","1",1,1,"A_first"
"290",33,90,90,3,1,"4",0.45565,1,0.25,3,"ldrc_0_018","1",1,1,"A_first"
"291",34,93,93,1,1,"4",0.551502,0,0,1,"ldrc_0_018","1",1,1,"A_first"
"292",35,95,95.01,1,1,"4",0.495047,0,0,1,"ldrc_0_018","1",1,1,"A_first"
"293",36,97,97.01,1,1,"4",0.500962,0,0,1,"ldrc_0_018","1",1,1,"A_first"
"294",37,100,100.01,0,0,"1",0.602822,0,0,1,"ldrc_0_018","1",1,1,"A_first"
"295",38,103,103.01,0,0,"1",0.91072,0,0,1,"ldrc_0_018","1",1,1,"A_first"
"296",39,105,105.01,0,0,"1",0.559903,0,0,1,"ldrc_0_018","1",1,1,"A_first"
"297",40,108,108.01,0,0,"1",0.577833,0,0,1,"ldrc_0_018","1",1,1,"A_first"
"298",41,110,110.01,0,0,"1",0.913087,0,0,1,"ldrc_0_018","1",1,1,"A_first"
"299",42,112,112.01,2,0,"1",0.346257,1,0.2,3,"ldrc_0_018","1",1,1,"A_first"
"300",43,114,114.01,3,1,"4",0.559546,1,0.15,3,"ldrc_0_018","1",1,1,"A_first"
"301",44,116,116.01,3,1,"0",0,1,0.1,4,"ldrc_0_018","1",1,1,"A_first"
"302",45,121,121.02,1,1,"4",0.47885,0,0,1,"ldrc_0_018","1",1,1,"A_first"
"303",46,123,123.02,1,1,"4",0.495071,0,0,1,"ldrc_0_018","1",1,1,"A_first"
"304",47,125,125.02,1,1,"4",0.388373,0,0,1,"ldrc_0_018","1",1,1,"A_first"
"305",48,128,128,0,0,"1",0.730745,0,0,1,"ldrc_0_018","1",1,1,"A_first"
"306",49,130,130,3,1,"0",0,1,0.15,4,"ldrc_0_018","1",1,1,"A_first"
"307",50,132,132,0,0,"1",0.501224,0,0,1,"ldrc_0_018","1",1,1,"A_first"
"308",51,134,134,1,1,"4",0.49354,0,0,1,"ldrc_0_018","1",1,1,"A_first"
"309",52,136,136.01,0,0,"1",0.686796,0,0,1,"ldrc_0_018","1",1,1,"A_first"
"310",53,139,139.01,2,0,"0",0,1,0.2,4,"ldrc_0_018","1",1,1,"A_first"
"311",54,144,144.01,0,0,"1",0.561763,0,0,1,"ldrc_0_018","1",1,1,"A_first"
"312",55,147,147.01,0,0,"1",0.778735,0,0,1,"ldrc_0_018","1",1,1,"A_first"
"313",56,149,149.01,1,1,"4",0.657794,0,0,1,"ldrc_0_018","1",1,1,"A_first"
"314",57,153,153.01,1,1,"4",0.544353,0,0,1,"ldrc_0_018","1",1,1,"A_first"
"315",58,155,155.01,0,0,"1",0.57973,0,0,1,"ldrc_0_018","1",1,1,"A_first"
"316",59,157,157.01,3,1,"4",0.432815,1,0.25,3,"ldrc_0_018","1",1,1,"A_first"
"317",60,163,163.02,1,1,"4",0.706483,0,0,1,"ldrc_0_018","1",1,1,"A_first"
"318",61,165,165.02,0,0,"1",0.657696,0,0,1,"ldrc_0_018","1",1,1,"A_first"
"319",62,167,167,0,0,"1",0.602581,0,0,1,"ldrc_0_018","1",1,1,"A_first"
"320",63,169,169,1,1,"4",0.613898,0,0,1,"ldrc_0_018","1",1,1,"A_first"
"321",64,174,174,0,0,"1",0.421945,0,0,1,"ldrc_0_018","1",1,1,"A_first"
"322",65,177,177.01,0,0,"1",0.555898,0,0,1,"ldrc_0_018","1",1,1,"A_first"
"323",66,179,179.01,1,1,"4",0.442982,0,0,1,"ldrc_0_018","1",1,1,"A_first"
"324",67,181,181.01,0,0,"1",0.752504,0,0,1,"ldrc_0_018","1",1,1,"A_first"
"325",68,183,183.01,1,1,"4",0.472451,0,0,1,"ldrc_0_018","1",1,1,"A_first"
"326",69,186,186.01,3,1,"0",0,1,0.2,4,"ldrc_0_018","1",1,1,"A_first"
"327",70,188,188.01,3,1,"0",0,1,0.25,4,"ldrc_0_018","1",1,1,"A_first"
"328",71,192,192.01,0,0,"0",0,0,0,5,"ldrc_0_018","1",1,1,"A_first"
"329",72,195,195.01,0,0,"1",0.593905,0,0,1,"ldrc_0_018","1",1,1,"A_first"
"330",73,197,197.01,3,1,"4",0.467105,1,0.3,3,"ldrc_0_018","1",1,1,"A_first"
"331",74,199,199.01,1,1,"4",0.41452,0,0,1,"ldrc_0_018","1",1,1,"A_first"
"332",75,203,203.02,0,0,"1",0.399819,0,0,1,"ldrc_0_018","1",1,1,"A_first"
"333",76,206,206.02,0,0,"1",0.965715,0,0,1,"ldrc_0_018","1",1,1,"A_first"
"334",77,208,208,1,1,"4",0.437548,0,0,1,"ldrc_0_018","1",1,1,"A_first"
"335",78,210,210,0,0,"1",0.661772,0,0,1,"ldrc_0_018","1",1,1,"A_first"
"336",79,214,214,3,1,"4",0.408241,1,0.25,3,"ldrc_0_018","1",1,1,"A_first"
"337",80,217,217.01,2,0,"0",0,1,0.2,4,"ldrc_0_018","1",1,1,"A_first"
"338",81,219,219.01,0,0,"1",0.746437,0,0,1,"ldrc_0_018","1",1,1,"A_first"
"339",82,221,221.01,1,1,"4",0.672549,0,0,1,"ldrc_0_018","1",1,1,"A_first"
"340",83,223,223.01,0,0,"1",0.538835,0,0,1,"ldrc_0_018","1",1,1,"A_first"
"341",84,225,225.01,0,0,"1",0.573133,0,0,1,"ldrc_0_018","1",1,1,"A_first"
"342",85,227,227.01,1,1,"4",0.608309,0,0,1,"ldrc_0_018","1",1,1,"A_first"
"343",86,230,230.01,1,1,"4",0.676227,0,0,1,"ldrc_0_018","1",1,1,"A_first"
"344",87,232,232.01,1,1,"4",0.640404,0,0,1,"ldrc_0_018","1",1,1,"A_first"
"345",88,234,234.01,0,0,"1",0.830703,0,0,1,"ldrc_0_018","1",1,1,"A_first"
"346",89,238,238.01,0,0,"1",0.575102,0,0,1,"ldrc_0_018","1",1,1,"A_first"
"347",90,240,240.01,0,0,"1",0.696273,0,0,1,"ldrc_0_018","1",1,1,"A_first"
"348",91,242,242.02,0,0,"1",0.514595,0,0,1,"ldrc_0_018","1",1,1,"A_first"
"349",92,249,249.02,1,1,"4",0.682847,0,0,1,"ldrc_0_018","1",1,1,"A_first"
"350",93,253,253,1,1,"4",0.514008,0,0,1,"ldrc_0_018","1",1,1,"A_first"
"351",94,257,257,2,0,"0",0,1,0.25,4,"ldrc_0_018","1",1,1,"A_first"
"352",95,259,259.01,3,1,"4",0.599172,1,0.3,3,"ldrc_0_018","1",1,1,"A_first"
"353",96,261,261.01,2,0,"1",0.605114,1,0.25,3,"ldrc_0_018","1",1,1,"A_first"
"354",97,265,265.01,0,0,"1",0.558281,0,0,1,"ldrc_0_018","1",1,1,"A_first"
"355",98,271,271.01,2,0,"0",0,1,0.2,4,"ldrc_0_018","1",1,1,"A_first"
"356",99,276,276.01,2,0,"1",0.69421,1,0.25,3,"ldrc_0_018","1",1,1,"A_first"
"357",100,278,278.01,2,0,"0",0,1,0.2,4,"ldrc_0_018","1",1,1,"A_first"
"358",101,280,280.01,1,1,"4",0.80171,0,0,1,"ldrc_0_018","1",1,1,"A_first"
"359",102,282,282.02,1,1,"4",0.764003,0,0,1,"ldrc_0_018","1",1,1,"A_first"
"360",103,284,284.02,0,0,"1",0.48416,0,0,1,"ldrc_0_018","1",1,1,"A_first"
"361",104,286,286.02,1,1,"4",0.655492,0,0,1,"ldrc_0_018","1",1,1,"A_first"
"362",105,288,288.02,1,1,"4",0.617711,0,0,1,"ldrc_0_018","1",1,1,"A_first"
"363",106,291,291,2,0,"0",0,1,0.25,4,"ldrc_0_018","1",1,1,"A_first"
"364",107,295,295,0,0,"1",0.982746,0,0,1,"ldrc_0_018","1",1,1,"A_first"
"365",108,298,298.01,2,0,"0",0,1,0.3,4,"ldrc_0_018","1",1,1,"A_first"
"366",109,300,300.01,2,0,"1",0.578833,1,0.35,3,"ldrc_0_018","1",1,1,"A_first"
"367",110,302,302.01,0,0,"1",0.640909,0,0,1,"ldrc_0_018","1",1,1,"A_first"
"368",111,305,305.01,1,1,"4",0.45885,0,0,1,"ldrc_0_018","1",1,1,"A_first"
"369",112,307,307.01,1,1,"4",0.760081,0,0,1,"ldrc_0_018","1",1,1,"A_first"
"370",113,309,309.01,0,0,"4",0.405376,0,0,0,"ldrc_0_018","1",1,1,"A_first"
"371",114,312,312.01,3,1,"4",0.459194,1,0.3,3,"ldrc_0_018","1",1,1,"A_first"
"372",115,317,317.01,0,0,"1",0.925307,0,0,1,"ldrc_0_018","1",1,1,"A_first"
"373",116,319,319.01,1,1,"4",0.746699,0,0,1,"ldrc_0_018","1",1,1,"A_first"
"374",117,321,321.01,0,0,"1",0.75488,0,0,1,"ldrc_0_018","1",1,1,"A_first"
"375",118,323,323.02,0,0,"1",0.861963,0,0,1,"ldrc_0_018","1",1,1,"A_first"
"376",119,325,325.02,1,1,"4",0.543204,0,0,1,"ldrc_0_018","1",1,1,"A_first"
"377",120,329,329.02,2,0,"0",0,1,0.25,4,"ldrc_0_018","1",1,1,"A_first"
"378",121,331,331,1,1,"4",0.623624,0,0,1,"ldrc_0_018","1",1,1,"A_first"
"379",122,335,335,1,1,"4",0.641142,0,0,1,"ldrc_0_018","1",1,1,"A_first"
"380",123,337,337,1,1,"4",0.562269,0,0,1,"ldrc_0_018","1",1,1,"A_first"
"381",124,339,339.01,1,1,"4",0.755601,0,0,1,"ldrc_0_018","1",1,1,"A_first"
"382",125,341,341.01,1,1,"4",0.945859,0,0,1,"ldrc_0_018","1",1,1,"A_first"
"383",126,343,343.01,1,1,"4",0.399979,0,0,1,"ldrc_0_018","1",1,1,"A_first"
"384",127,348,348.01,2,0,"0",0,1,0.3,4,"ldrc_0_018","1",1,1,"A_first"
"385",0,0,0.02,0,0,"1",0.849388,0,0,1,"ldrc_0_018","2",1,1,"A_first"
"386",1,2,2.02,0,0,"1",0.57349,0,0,1,"ldrc_0_018","2",1,1,"A_first"
"387",2,6,6.02,0,0,"1",0.535909,0,0,1,"ldrc_0_018","2",1,1,"A_first"
"388",3,8,8,1,1,"4",0.487873,0,0,1,"ldrc_0_018","2",1,1,"A_first"
"389",4,10,10,1,1,"4",0.396175,0,0,1,"ldrc_0_018","2",1,1,"A_first"
"390",5,12,12,1,1,"4",0.782358,0,0,1,"ldrc_0_018","2",1,1,"A_first"
"391",6,14,14.01,1,1,"4",0.580637,0,0,1,"ldrc_0_018","2",1,1,"A_first"
"392",7,16,16.01,1,1,"4",0.566968,0,0,1,"ldrc_0_018","2",1,1,"A_first"
"393",8,19,19.01,1,1,"4",0.526672,0,0,1,"ldrc_0_018","2",1,1,"A_first"
"394",9,21,21.01,0,0,"1",0.529914,0,0,1,"ldrc_0_018","2",1,1,"A_first"
"395",10,24,24.01,2,0,"1",0.476915,1,0.25,3,"ldrc_0_018","2",1,1,"A_first"
"396",11,29,29.01,3,1,"4",0.520919,1,0.2,3,"ldrc_0_018","2",1,1,"A_first"
"397",12,31,31.01,0,0,"1",0.708151,0,0,1,"ldrc_0_018","2",1,1,"A_first"
"398",13,33,33.01,1,1,"4",0.387402,0,0,1,"ldrc_0_018","2",1,1,"A_first"
"399",14,35,35.01,3,1,"0",0,1,0.15,4,"ldrc_0_018","2",1,1,"A_first"
"400",15,38,38.02,1,1,"4",0.628379,0,0,1,"ldrc_0_018","2",1,1,"A_first"
"401",16,40,40.02,1,1,"4",0.525651,0,0,1,"ldrc_0_018","2",1,1,"A_first"
"402",17,42,42.02,3,1,"4",0.414907,1,0.2,3,"ldrc_0_018","2",1,1,"A_first"
"403",18,44,44.02,1,1,"4",0.542895,0,0,1,"ldrc_0_018","2",1,1,"A_first"
"404",19,46,46,1,1,"4",0.439963,0,0,1,"ldrc_0_018","2",1,1,"A_first"
"405",20,52,52,1,1,"4",0.733647,0,0,1,"ldrc_0_018","2",1,1,"A_first"
"406",21,55,55.01,1,1,"4",0.705686,0,0,1,"ldrc_0_018","2",1,1,"A_first"
"407",22,57,57.01,1,1,"4",0.894977,0,0,1,"ldrc_0_018","2",1,1,"A_first"
"408",23,59,59.01,0,0,"1",0.627061,0,0,1,"ldrc_0_018","2",1,1,"A_first"
"409",24,61,61.01,0,0,"1",0.747262,0,0,1,"ldrc_0_018","2",1,1,"A_first"
"410",25,63,63.01,1,1,"4",0.622721,0,0,1,"ldrc_0_018","2",1,1,"A_first"
"411",26,65,65.01,0,0,"1",0.474726,0,0,1,"ldrc_0_018","2",1,1,"A_first"
"412",27,68,68.01,1,1,"4",0.552669,0,0,1,"ldrc_0_018","2",1,1,"A_first"
"413",28,71,71.01,0,0,"1",0.500394,0,0,1,"ldrc_0_018","2",1,1,"A_first"
"414",29,73,73.01,1,1,"4",0.75771,0,0,1,"ldrc_0_018","2",1,1,"A_first"
"415",30,80,80.02,2,0,"0",0,1,0.15,4,"ldrc_0_018","2",1,1,"A_first"
"416",31,87,87.02,2,0,"0",0,1,0.2,4,"ldrc_0_018","2",1,1,"A_first"
"417",32,89,89,1,1,"4",0.491069,0,0,1,"ldrc_0_018","2",1,1,"A_first"
"418",33,91,91,3,1,"0",0,1,0.25,4,"ldrc_0_018","2",1,1,"A_first"
"419",34,94,94,2,0,"1",0.491394,1,0.3,3,"ldrc_0_018","2",1,1,"A_first"
"420",35,96,96.01,0,0,"1",0.772634,0,0,1,"ldrc_0_018","2",1,1,"A_first"
"421",36,98,98.01,1,1,"4",0.719845,0,0,1,"ldrc_0_018","2",1,1,"A_first"
"422",37,100,100.01,0,0,"1",0.824101,0,0,1,"ldrc_0_018","2",1,1,"A_first"
"423",38,103,103.01,0,0,"4",0.416984,0,0,0,"ldrc_0_018","2",1,1,"A_first"
"424",39,106,106.01,2,0,"0",0,1,0.25,4,"ldrc_0_018","2",1,1,"A_first"
"425",40,108,108.01,0,0,"1",0.645071,0,0,1,"ldrc_0_018","2",1,1,"A_first"
"426",41,111,111.01,0,0,"1",0.673783,0,0,1,"ldrc_0_018","2",1,1,"A_first"
"427",42,113,113.01,3,1,"4",0.514139,1,0.3,3,"ldrc_0_018","2",1,1,"A_first"
"428",43,115,115.01,2,0,"0",0,1,0.25,4,"ldrc_0_018","2",1,1,"A_first"
"429",44,118,118.01,3,1,"4",0.545344,1,0.3,3,"ldrc_0_018","2",1,1,"A_first"
"430",45,120,120.02,1,1,"4",0.565443,0,0,1,"ldrc_0_018","2",1,1,"A_first"
"431",46,124,124.02,1,1,"4",0.564877,0,0,1,"ldrc_0_018","2",1,1,"A_first"
"432",47,126,126.02,0,0,"1",0.736136,0,0,1,"ldrc_0_018","2",1,1,"A_first"
"433",48,128,128,0,0,"1",0.785994,0,0,1,"ldrc_0_018","2",1,1,"A_first"
"434",49,130,130,2,0,"1",0.663259,1,0.25,3,"ldrc_0_018","2",1,1,"A_first"
"435",50,132,132,3,1,"4",0.374523,1,0.2,3,"ldrc_0_018","2",1,1,"A_first"
"436",51,134,134,3,1,"0",0,1,0.15,4,"ldrc_0_018","2",1,1,"A_first"
"437",52,136,136.01,0,0,"1",0.43,0,0,1,"ldrc_0_018","2",1,1,"A_first"
"438",53,139,139.01,1,1,"4",0.588964,0,0,1,"ldrc_0_018","2",1,1,"A_first"
"439",54,142,142.01,0,0,"1",0.595669,0,0,1,"ldrc_0_018","2",1,1,"A_first"
"440",55,144,144.01,1,1,"4",0.506939,0,0,1,"ldrc_0_018","2",1,1,"A_first"
"441",56,146,146.01,1,1,"4",0.70416,0,0,1,"ldrc_0_018","2",1,1,"A_first"
"442",57,148,148.01,0,0,"1",0.498372,0,0,1,"ldrc_0_018","2",1,1,"A_first"
"443",58,150,150.01,1,1,"4",0.708679,0,0,1,"ldrc_0_018","2",1,1,"A_first"
"444",59,152,152.01,0,0,"1",0.394815,0,0,1,"ldrc_0_018","2",1,1,"A_first"
"445",60,154,154.01,0,0,"1",0.55242,0,0,1,"ldrc_0_018","2",1,1,"A_first"
"446",61,158,158.01,3,1,"4",0.57061,1,0.2,3,"ldrc_0_018","2",1,1,"A_first"
"447",62,161,161.02,2,0,"0",0,1,0.15,4,"ldrc_0_018","2",1,1,"A_first"
"448",63,163,163.02,2,0,"0",0,1,0.2,4,"ldrc_0_018","2",1,1,"A_first"
"449",64,171,171,0,0,"1",0.628239,0,0,1,"ldrc_0_018","2",1,1,"A_first"
"450",65,176,176.01,1,1,"4",0.615338,0,0,1,"ldrc_0_018","2",1,1,"A_first"
"451",66,179,179.01,0,0,"1",0.582286,0,0,1,"ldrc_0_018","2",1,1,"A_first"
"452",67,184,184.01,0,0,"1",0.763363,0,0,1,"ldrc_0_018","2",1,1,"A_first"
"453",68,186,186.01,0,0,"1",0.7316,0,0,1,"ldrc_0_018","2",1,1,"A_first"
"454",69,190,190.01,0,0,"1",0.601009,0,0,1,"ldrc_0_018","2",1,1,"A_first"
"455",70,192,192.01,1,1,"4",0.558311,0,0,1,"ldrc_0_018","2",1,1,"A_first"
"456",71,194,194.01,1,1,"1",0.517516,0,0,0,"ldrc_0_018","2",1,1,"A_first"
"457",72,196,196.01,1,1,"4",0.474666,0,0,1,"ldrc_0_018","2",1,1,"A_first"
"458",73,199,199.01,2,0,"0",0,1,0.25,4,"ldrc_0_018","2",1,1,"A_first"
"459",74,201,201.02,3,1,"4",0.608835,1,0.3,3,"ldrc_0_018","2",1,1,"A_first"
"460",75,204,204.02,2,0,"0",0,1,0.25,4,"ldrc_0_018","2",1,1,"A_first"
"461",76,207,207.02,1,1,"4",0.837544,0,0,1,"ldrc_0_018","2",1,1,"A_first"
"462",77,211,211,1,1,"4",0.538674,0,0,1,"ldrc_0_018","2",1,1,"A_first"
"463",78,214,214,0,0,"1",0.568411,0,0,1,"ldrc_0_018","2",1,1,"A_first"
"464",79,216,216,0,0,"1",0.711696,0,0,1,"ldrc_0_018","2",1,1,"A_first"
"465",80,219,219.01,0,0,"1",0.531736,0,0,1,"ldrc_0_018","2",1,1,"A_first"
"466",81,221,221.01,0,0,"1",0.822793,0,0,1,"ldrc_0_018","2",1,1,"A_first"
"467",82,225,225.01,3,1,"4",0.43235,1,0.3,3,"ldrc_0_018","2",1,1,"A_first"
"468",83,227,227.01,1,1,"4",0.552496,0,0,1,"ldrc_0_018","2",1,1,"A_first"
"469",84,229,229.01,3,1,"4",0.446774,1,0.25,3,"ldrc_0_018","2",1,1,"A_first"
"470",85,231,231.01,2,0,"0",0,1,0.2,4,"ldrc_0_018","2",1,1,"A_first"
"471",86,233,233.01,3,1,"4",0.552283,1,0.25,3,"ldrc_0_018","2",1,1,"A_first"
"472",87,238,238.01,1,1,"4",0.589355,0,0,1,"ldrc_0_018","2",1,1,"A_first"
"473",88,240,240.01,1,1,"4",0.460552,0,0,1,"ldrc_0_018","2",1,1,"A_first"
"474",89,244,244.02,1,1,"4",0.613998,0,0,1,"ldrc_0_018","2",1,1,"A_first"
"475",90,246,246.02,0,0,"1",0.664242,0,0,1,"ldrc_0_018","2",1,1,"A_first"
"476",91,248,248.02,1,1,"4",0.559502,0,0,1,"ldrc_0_018","2",1,1,"A_first"
"477",92,250,250,1,1,"1",0.499086,0,0,0,"ldrc_0_018","2",1,1,"A_first"
"478",93,252,252,1,1,"4",0.491604,0,0,1,"ldrc_0_018","2",1,1,"A_first"
"479",94,255,255,2,0,"0",0,1,0.2,4,"ldrc_0_018","2",1,1,"A_first"
"480",95,257,257,1,1,"4",0.509719,0,0,1,"ldrc_0_018","2",1,1,"A_first"
"481",96,259,259.01,0,0,"1",0.875043,0,0,1,"ldrc_0_018","2",1,1,"A_first"
"482",97,261,261.01,0,0,"1",0.552228,0,0,1,"ldrc_0_018","2",1,1,"A_first"
"483",98,263,263.01,3,1,"0",0,1,0.25,4,"ldrc_0_018","2",1,1,"A_first"
"484",99,265,265.01,0,0,"1",0.676743,0,0,1,"ldrc_0_018","2",1,1,"A_first"
"485",100,267,267.01,1,1,"4",0.628091,0,0,1,"ldrc_0_018","2",1,1,"A_first"
"486",101,269,269.01,0,0,"1",0.652168,0,0,1,"ldrc_0_018","2",1,1,"A_first"
"487",102,274,274.01,3,1,"0",0,1,0.3,4,"ldrc_0_018","2",1,1,"A_first"
"488",103,276,276.01,2,0,"0",0,1,0.35,4,"ldrc_0_018","2",1,1,"A_first"
"489",104,279,279.01,0,0,"1",0.55617,0,0,1,"ldrc_0_018","2",1,1,"A_first"
"490",105,281,281.01,0,0,"1",0.556626,0,0,1,"ldrc_0_018","2",1,1,"A_first"
"491",106,286,286.02,1,1,"4",0.560638,0,0,1,"ldrc_0_018","2",1,1,"A_first"
"492",107,290,290.02,1,1,"4",0.600199,0,0,1,"ldrc_0_018","2",1,1,"A_first"
"493",108,293,293,0,0,"1",0.63463,0,0,1,"ldrc_0_018","2",1,1,"A_first"
"494",109,295,295,0,0,"1",0.692805,0,0,1,"ldrc_0_018","2",1,1,"A_first"
"495",110,297,297,1,1,"4",0.492247,0,0,1,"ldrc_0_018","2",1,1,"A_first"
"496",111,300,300.01,0,0,"1",0.681929,0,0,1,"ldrc_0_018","2",1,1,"A_first"
"497",112,302,302.01,0,0,"1",0.740215,0,0,1,"ldrc_0_018","2",1,1,"A_first"
"498",113,308,308.01,3,1,"4",0.73297,1,0.4,3,"ldrc_0_018","2",1,1,"A_first"
"499",114,310,310.01,0,0,"0",0,0,0,5,"ldrc_0_018","2",1,1,"A_first"
"500",115,312,312.01,2,0,"0",0,1,0.35,4,"ldrc_0_018","2",1,1,"A_first"
"501",116,314,314.01,0,0,"1",0.624682,0,0,1,"ldrc_0_018","2",1,1,"A_first"
"502",117,316,316.01,0,0,"1",0.801889,0,0,1,"ldrc_0_018","2",1,1,"A_first"
"503",118,318,318.01,0,0,"1",0.644049,0,0,1,"ldrc_0_018","2",1,1,"A_first"
"504",119,324,324.02,1,1,"4",0.568846,0,0,1,"ldrc_0_018","2",1,1,"A_first"
"505",120,326,326.02,1,1,"4",0.548986,0,0,1,"ldrc_0_018","2",1,1,"A_first"
"506",121,329,329.02,0,0,"1",0.635751,0,0,1,"ldrc_0_018","2",1,1,"A_first"
"507",122,331,331,0,0,"1",0.690593,0,0,1,"ldrc_0_018","2",1,1,"A_first"
"508",123,333,333,1,1,"4",0.508206,0,0,1,"ldrc_0_018","2",1,1,"A_first"
"509",124,337,337,1,1,"4",0.624483,0,0,1,"ldrc_0_018","2",1,1,"A_first"
"510",125,339,339.01,2,0,"0",0,1,0.4,4,"ldrc_0_018","2",1,1,"A_first"
"511",126,344,344.01,1,1,"4",0.522856,0,0,1,"ldrc_0_018","2",1,1,"A_first"
"512",127,346,346.01,0,0,"1",0.759985,0,0,1,"ldrc_0_018","2",1,1,"A_first"
"513",0,0,0.02,1,1,"4",0.605728,0,0,1,"ldrc_0_025","1",1,1,"A_first"
"514",1,2,2.02,1,1,"4",0.5288,0,0,1,"ldrc_0_025","1",1,1,"A_first"
"515",2,5,5.02,1,1,"4",0.681698,0,0,1,"ldrc_0_025","1",1,1,"A_first"
"516",3,12,12,0,0,"1",0.863639,0,0,1,"ldrc_0_025","1",1,1,"A_first"
"517",4,14,14.01,3,1,"0",0,1,0.25,4,"ldrc_0_025","1",1,1,"A_first"
"518",5,16,16.01,3,1,"4",0.529208,1,0.3,3,"ldrc_0_025","1",1,1,"A_first"
"519",6,18,18.01,2,0,"1",0.369425,1,0.25,3,"ldrc_0_025","1",1,1,"A_first"
"520",7,21,21.01,0,0,"1",0.525226,0,0,1,"ldrc_0_025","1",1,1,"A_first"
"521",8,23,23.01,1,1,"4",0.518514,0,0,1,"ldrc_0_025","1",1,1,"A_first"
"522",9,25,25.01,0,0,"1",0.534728,0,0,1,"ldrc_0_025","1",1,1,"A_first"
"523",10,34,34.01,0,0,"1",0.6513,0,0,1,"ldrc_0_025","1",1,1,"A_first"
"524",11,36,36.01,1,1,"4",0.606513,0,0,1,"ldrc_0_025","1",1,1,"A_first"
"525",12,39,39.02,1,1,"4",0.629362,0,0,1,"ldrc_0_025","1",1,1,"A_first"
"526",13,41,41.02,0,0,"1",0.798578,0,0,1,"ldrc_0_025","1",1,1,"A_first"
"527",14,43,43.02,0,0,"1",0.971957,0,0,1,"ldrc_0_025","1",1,1,"A_first"
"528",15,46,46,0,0,"1",0.568305,0,0,1,"ldrc_0_025","1",1,1,"A_first"
"529",16,48,48,1,1,"4",0.576579,0,0,1,"ldrc_0_025","1",1,1,"A_first"
"530",17,51,51,1,1,"4",0.544455,0,0,1,"ldrc_0_025","1",1,1,"A_first"
"531",18,56,56.01,3,1,"0",0,1,0.2,4,"ldrc_0_025","1",1,1,"A_first"
"532",19,58,58.01,3,1,"4",0.49385,1,0.25,3,"ldrc_0_025","1",1,1,"A_first"
"533",20,61,61.01,0,0,"1",0.531661,0,0,1,"ldrc_0_025","1",1,1,"A_first"
"534",21,63,63.01,3,1,"0",0,1,0.2,4,"ldrc_0_025","1",1,1,"A_first"
"535",22,66,66.01,1,1,"4",0.546801,0,0,1,"ldrc_0_025","1",1,1,"A_first"
"536",23,69,69.01,1,1,"4",0.645573,0,0,1,"ldrc_0_025","1",1,1,"A_first"
"537",24,71,71.01,0,0,"1",0.584889,0,0,1,"ldrc_0_025","1",1,1,"A_first"
"538",25,73,73.01,0,0,"1",0.539056,0,0,1,"ldrc_0_025","1",1,1,"A_first"
"539",26,75,75.01,0,0,"1",0.591265,0,0,1,"ldrc_0_025","1",1,1,"A_first"
"540",27,77,77.01,1,1,"4",0.59351,0,0,1,"ldrc_0_025","1",1,1,"A_first"
"541",28,79,79.02,1,1,"4",0.691767,0,0,1,"ldrc_0_025","1",1,1,"A_first"
"542",29,81,81.02,1,1,"4",0.657036,0,0,1,"ldrc_0_025","1",1,1,"A_first"
"543",30,83,83.02,0,0,"1",0.678357,0,0,1,"ldrc_0_025","1",1,1,"A_first"
"544",31,86,86,2,0,"0",0,1,0.25,4,"ldrc_0_025","1",1,1,"A_first"
"545",32,88,88,2,0,"0",0,1,0.3,4,"ldrc_0_025","1",1,1,"A_first"
"546",33,90,90,3,1,"0",0,1,0.35,4,"ldrc_0_025","1",1,1,"A_first"
"547",34,93,93,1,1,"4",0.632934,0,0,1,"ldrc_0_025","1",1,1,"A_first"
"548",35,95,95.01,1,1,"4",0.620372,0,0,1,"ldrc_0_025","1",1,1,"A_first"
"549",36,97,97.01,1,1,"4",0.770556,0,0,1,"ldrc_0_025","1",1,1,"A_first"
"550",37,100,100.01,0,0,"1",0.567404,0,0,1,"ldrc_0_025","1",1,1,"A_first"
"551",38,103,103.01,0,0,"1",0.801298,0,0,1,"ldrc_0_025","1",1,1,"A_first"
"552",39,105,105.01,0,0,"1",0.677351,0,0,1,"ldrc_0_025","1",1,1,"A_first"
"553",40,108,108.01,0,0,"1",0.560405,0,0,1,"ldrc_0_025","1",1,1,"A_first"
"554",41,110,110.01,0,0,"1",0.555401,0,0,1,"ldrc_0_025","1",1,1,"A_first"
"555",42,112,112.01,2,0,"0",0,1,0.4,4,"ldrc_0_025","1",1,1,"A_first"
"556",43,114,114.01,3,1,"4",0.640117,1,0.45,3,"ldrc_0_025","1",1,1,"A_first"
"557",44,116,116.01,3,1,"0",0,1,0.4,4,"ldrc_0_025","1",1,1,"A_first"
"558",45,121,121.02,1,1,"4",0.804451,0,0,1,"ldrc_0_025","1",1,1,"A_first"
"559",46,123,123.02,1,1,"4",0.826481,0,0,1,"ldrc_0_025","1",1,1,"A_first"
"560",47,125,125.02,1,1,"4",0.919969,0,0,1,"ldrc_0_025","1",1,1,"A_first"
"561",48,128,128,0,0,"1",0.688297,0,0,1,"ldrc_0_025","1",1,1,"A_first"
"562",49,130,130,3,1,"0",0,1,0.45,4,"ldrc_0_025","1",1,1,"A_first"
"563",50,132,132,0,0,"1",0.873697,0,0,1,"ldrc_0_025","1",1,1,"A_first"
"564",51,134,134,1,1,"4",0.6821,0,0,1,"ldrc_0_025","1",1,1,"A_first"
"565",52,136,136.01,0,0,"1",0.459312,0,0,1,"ldrc_0_025","1",1,1,"A_first"
"566",53,139,139.01,2,0,"1",0.597203,1,0.5,3,"ldrc_0_025","1",1,1,"A_first"
"567",54,144,144.01,0,0,"0",0,0,0,5,"ldrc_0_025","1",1,1,"A_first"
"568",55,147,147.01,0,0,"1",0.513091,0,0,1,"ldrc_0_025","1",1,1,"A_first"
"569",56,149,149.01,1,1,"4",0.70739,0,0,1,"ldrc_0_025","1",1,1,"A_first"
"570",57,153,153.01,1,1,"4",0.544806,0,0,1,"ldrc_0_025","1",1,1,"A_first"
"571",58,155,155.01,0,0,"1",0.568129,0,0,1,"ldrc_0_025","1",1,1,"A_first"
"572",59,157,157.01,3,1,"4",0.467396,1,0.45,3,"ldrc_0_025","1",1,1,"A_first"
"573",60,163,163.02,1,1,"4",0.746056,0,0,1,"ldrc_0_025","1",1,1,"A_first"
"574",61,165,165.02,0,0,"1",0.598185,0,0,1,"ldrc_0_025","1",1,1,"A_first"
"575",62,167,167,0,0,"1",0.517997,0,0,1,"ldrc_0_025","1",1,1,"A_first"
"576",63,169,169,1,1,"1",0.831324,0,0,0,"ldrc_0_025","1",1,1,"A_first"
"577",64,174,174,0,0,"1",0.525433,0,0,1,"ldrc_0_025","1",1,1,"A_first"
"578",65,177,177.01,0,0,"1",0.461314,0,0,1,"ldrc_0_025","1",1,1,"A_first"
"579",66,179,179.01,1,1,"4",0.710819,0,0,1,"ldrc_0_025","1",1,1,"A_first"
"580",67,181,181.01,0,0,"1",0.675869,0,0,1,"ldrc_0_025","1",1,1,"A_first"
"581",68,183,183.01,1,1,"4",0.603034,0,0,1,"ldrc_0_025","1",1,1,"A_first"
"582",69,186,186.01,3,1,"4",0.470866,1,0.4,3,"ldrc_0_025","1",1,1,"A_first"
"583",70,188,188.01,3,1,"0",0,1,0.35,4,"ldrc_0_025","1",1,1,"A_first"
"584",71,192,192.01,0,0,"1",0.405541,0,0,1,"ldrc_0_025","1",1,1,"A_first"
"585",72,195,195.01,0,0,"1",0.447492,0,0,1,"ldrc_0_025","1",1,1,"A_first"
"586",73,197,197.01,3,1,"4",0.465733,1,0.4,3,"ldrc_0_025","1",1,1,"A_first"
"587",74,199,199.01,1,1,"4",0.462977,0,0,1,"ldrc_0_025","1",1,1,"A_first"
"588",75,203,203.02,0,0,"1",0.794532,0,0,1,"ldrc_0_025","1",1,1,"A_first"
"589",76,206,206.02,0,0,"1",0.806331,0,0,1,"ldrc_0_025","1",1,1,"A_first"
"590",77,208,208,1,1,"4",0.787872,0,0,1,"ldrc_0_025","1",1,1,"A_first"
"591",78,210,210,0,0,"1",0.868489,0,0,1,"ldrc_0_025","1",1,1,"A_first"
"592",79,214,214,3,1,"0",0,1,0.35,4,"ldrc_0_025","1",1,1,"A_first"
"593",80,217,217.01,2,0,"1",0.603814,1,0.4,3,"ldrc_0_025","1",1,1,"A_first"
"594",81,219,219.01,0,0,"4",0.350023,0,0,0,"ldrc_0_025","1",1,1,"A_first"
"595",82,221,221.01,1,1,"4",0.369176,0,0,1,"ldrc_0_025","1",1,1,"A_first"
"596",83,223,223.01,0,0,"1",0.429211,0,0,1,"ldrc_0_025","1",1,1,"A_first"
"597",84,225,225.01,0,0,"1",0.551618,0,0,1,"ldrc_0_025","1",1,1,"A_first"
"598",85,227,227.01,1,1,"4",0.650855,0,0,1,"ldrc_0_025","1",1,1,"A_first"
"599",86,230,230.01,1,1,"4",0.436787,0,0,1,"ldrc_0_025","1",1,1,"A_first"
"600",87,232,232.01,1,1,"4",0.586924,0,0,1,"ldrc_0_025","1",1,1,"A_first"
"601",88,234,234.01,0,0,"1",0.723189,0,0,1,"ldrc_0_025","1",1,1,"A_first"
"602",89,238,238.01,0,0,"1",0.617751,0,0,1,"ldrc_0_025","1",1,1,"A_first"
"603",90,240,240.01,0,0,"1",0.520004,0,0,1,"ldrc_0_025","1",1,1,"A_first"
"604",91,242,242.02,0,0,"1",0.606181,0,0,1,"ldrc_0_025","1",1,1,"A_first"
"605",92,249,249.02,1,1,"4",0.392291,0,0,1,"ldrc_0_025","1",1,1,"A_first"
"606",93,253,253,1,1,"4",0.64765,0,0,1,"ldrc_0_025","1",1,1,"A_first"
"607",94,257,257,2,0,"1",0.545135,1,0.35,3,"ldrc_0_025","1",1,1,"A_first"
"608",95,259,259.01,3,1,"0",0,1,0.3,4,"ldrc_0_025","1",1,1,"A_first"
"609",96,261,261.01,2,0,"0",0,1,0.35,4,"ldrc_0_025","1",1,1,"A_first"
"610",97,265,265.01,0,0,"1",0.566921,0,0,1,"ldrc_0_025","1",1,1,"A_first"
"611",98,271,271.01,2,0,"0",0,1,0.4,4,"ldrc_0_025","1",1,1,"A_first"
"612",99,276,276.01,2,0,"1",0.666859,1,0.45,3,"ldrc_0_025","1",1,1,"A_first"
"613",100,278,278.01,2,0,"0",0,1,0.4,4,"ldrc_0_025","1",1,1,"A_first"
"614",101,280,280.01,1,1,"4",0.775333,0,0,1,"ldrc_0_025","1",1,1,"A_first"
"615",102,282,282.02,1,1,"4",0.560524,0,0,1,"ldrc_0_025","1",1,1,"A_first"
"616",103,284,284.02,0,0,"1",0.573788,0,0,1,"ldrc_0_025","1",1,1,"A_first"
"617",104,286,286.02,1,1,"4",0.525007,0,0,1,"ldrc_0_025","1",1,1,"A_first"
"618",105,288,288.02,1,1,"4",0.788249,0,0,1,"ldrc_0_025","1",1,1,"A_first"
"619",106,291,291,2,0,"0",0,1,0.45,4,"ldrc_0_025","1",1,1,"A_first"
"620",107,295,295,0,0,"1",0.642482,0,0,1,"ldrc_0_025","1",1,1,"A_first"
"621",108,298,298.01,2,0,"1",0.680172,1,0.5,3,"ldrc_0_025","1",1,1,"A_first"
"622",109,300,300.01,2,0,"0",0,1,0.45,4,"ldrc_0_025","1",1,1,"A_first"
"623",110,302,302.01,0,0,"1",0.858552,0,0,1,"ldrc_0_025","1",1,1,"A_first"
"624",111,305,305.01,1,1,"4",0.470511,0,0,1,"ldrc_0_025","1",1,1,"A_first"
"625",112,307,307.01,1,1,"4",0.581671,0,0,1,"ldrc_0_025","1",1,1,"A_first"
"626",113,309,309.01,0,0,"1",0.469932,0,0,1,"ldrc_0_025","1",1,1,"A_first"
"627",114,312,312.01,3,1,"0",0,1,0.5,4,"ldrc_0_025","1",1,1,"A_first"
"628",115,317,317.01,0,0,"1",0.644844,0,0,1,"ldrc_0_025","1",1,1,"A_first"
"629",116,319,319.01,1,1,"4",0.40372,0,0,1,"ldrc_0_025","1",1,1,"A_first"
"630",117,321,321.01,0,0,"1",0.758272,0,0,1,"ldrc_0_025","1",1,1,"A_first"
"631",118,323,323.02,0,0,"1",0.865579,0,0,1,"ldrc_0_025","1",1,1,"A_first"
"632",119,325,325.02,1,1,"0",0,0,0,5,"ldrc_0_025","1",1,1,"A_first"
"633",120,329,329.02,2,0,"1",0.501198,1,0.55,3,"ldrc_0_025","1",1,1,"A_first"
"634",121,331,331,1,1,"4",0.737308,0,0,1,"ldrc_0_025","1",1,1,"A_first"
"635",122,335,335,1,1,"4",0.489758,0,0,1,"ldrc_0_025","1",1,1,"A_first"
"636",123,337,337,1,1,"4",0.578913,0,0,1,"ldrc_0_025","1",1,1,"A_first"
"637",124,339,339.01,1,1,"4",0.443013,0,0,1,"ldrc_0_025","1",1,1,"A_first"
"638",125,341,341.01,1,1,"4",0.446331,0,0,1,"ldrc_0_025","1",1,1,"A_first"
"639",126,343,343.01,1,1,"4",0.598606,0,0,1,"ldrc_0_025","1",1,1,"A_first"
"640",127,348,348.01,2,0,"1",0.566552,1,0.5,3,"ldrc_0_025","1",1,1,"A_first"
"641",0,0,0.02,1,1,"4",0.647647,0,0,1,"ldrc_0_026","1",1,1,"A_first"
"642",1,2,2.02,1,1,"4",0.486901,0,0,1,"ldrc_0_026","1",1,1,"A_first"
"643",2,5,5.02,1,1,"4",0.508626,0,0,1,"ldrc_0_026","1",1,1,"A_first"
"644",3,12,12,0,0,"1",0.575776,0,0,1,"ldrc_0_026","1",1,1,"A_first"
"645",4,14,14.01,3,1,"4",0.39116,1,0.25,3,"ldrc_0_026","1",1,1,"A_first"
"646",5,16,16.01,3,1,"4",0.518301,1,0.2,3,"ldrc_0_026","1",1,1,"A_first"
"647",6,18,18.01,2,0,"0",0,1,0.15,4,"ldrc_0_026","1",1,1,"A_first"
"648",7,21,21.01,0,0,"1",0.417329,0,0,1,"ldrc_0_026","1",1,1,"A_first"
"649",8,23,23.01,1,1,"4",0.564606,0,0,1,"ldrc_0_026","1",1,1,"A_first"
"650",9,25,25.01,0,0,"1",0.80682,0,0,1,"ldrc_0_026","1",1,1,"A_first"
"651",10,34,34.01,0,0,"1",0.57327,0,0,1,"ldrc_0_026","1",1,1,"A_first"
"652",11,36,36.01,1,1,"4",0.493636,0,0,1,"ldrc_0_026","1",1,1,"A_first"
"653",12,39,39.02,1,1,"4",0.536378,0,0,1,"ldrc_0_026","1",1,1,"A_first"
"654",13,41,41.02,0,0,"1",0.623698,0,0,1,"ldrc_0_026","1",1,1,"A_first"
"655",14,43,43.02,0,0,"1",0.55091,0,0,1,"ldrc_0_026","1",1,1,"A_first"
"656",15,46,46,0,0,"1",0.543238,0,0,1,"ldrc_0_026","1",1,1,"A_first"
"657",16,48,48,1,1,"4",0.477674,0,0,1,"ldrc_0_026","1",1,1,"A_first"
"658",17,51,51,1,1,"1",0.293571,0,0,0,"ldrc_0_026","1",1,1,"A_first"
"659",18,56,56.01,3,1,"4",0.335638,1,0.2,3,"ldrc_0_026","1",1,1,"A_first"
"660",19,58,58.01,3,1,"4",0.528965,1,0.15,3,"ldrc_0_026","1",1,1,"A_first"
"661",20,61,61.01,0,0,"1",0.582704,0,0,1,"ldrc_0_026","1",1,1,"A_first"
"662",21,63,63.01,3,1,"4",0.463856,1,0.1,3,"ldrc_0_026","1",1,1,"A_first"
"663",22,66,66.01,1,1,"4",0.679778,0,0,1,"ldrc_0_026","1",1,1,"A_first"
"664",23,69,69.01,1,1,"4",0.442558,0,0,1,"ldrc_0_026","1",1,1,"A_first"
"665",24,71,71.01,0,0,"4",0.354907,0,0,0,"ldrc_0_026","1",1,1,"A_first"
"666",25,73,73.01,0,0,"1",0.829257,0,0,1,"ldrc_0_026","1",1,1,"A_first"
"667",26,75,75.01,0,0,"1",0.707383,0,0,1,"ldrc_0_026","1",1,1,"A_first"
"668",27,77,77.01,1,1,"4",0.602629,0,0,1,"ldrc_0_026","1",1,1,"A_first"
"669",28,79,79.02,1,1,"4",0.859877,0,0,1,"ldrc_0_026","1",1,1,"A_first"
"670",29,81,81.02,1,1,"4",0.566013,0,0,1,"ldrc_0_026","1",1,1,"A_first"
"671",30,83,83.02,0,0,"1",0.575293,0,0,1,"ldrc_0_026","1",1,1,"A_first"
"672",31,86,86,2,0,"0",0,1,0.05,4,"ldrc_0_026","1",1,1,"A_first"
"673",32,88,88,2,0,"0",0,1,0.1,4,"ldrc_0_026","1",1,1,"A_first"
"674",33,90,90,3,1,"0",0,1,0.15,4,"ldrc_0_026","1",1,1,"A_first"
"675",34,93,93,1,1,"4",0.499163,0,0,1,"ldrc_0_026","1",1,1,"A_first"
"676",35,95,95.01,1,1,"4",0.510354,0,0,1,"ldrc_0_026","1",1,1,"A_first"
"677",36,97,97.01,1,1,"4",0.714652,0,0,1,"ldrc_0_026","1",1,1,"A_first"
"678",37,100,100.01,0,0,"1",0.512517,0,0,1,"ldrc_0_026","1",1,1,"A_first"
"679",38,103,103.01,0,0,"1",0.787468,0,0,1,"ldrc_0_026","1",1,1,"A_first"
"680",39,105,105.01,0,0,"1",0.516549,0,0,1,"ldrc_0_026","1",1,1,"A_first"
"681",40,108,108.01,0,0,"1",0.7314,0,0,1,"ldrc_0_026","1",1,1,"A_first"
"682",41,110,110.01,0,0,"1",0.558699,0,0,1,"ldrc_0_026","1",1,1,"A_first"
"683",42,112,112.01,2,0,"0",0,1,0.2,4,"ldrc_0_026","1",1,1,"A_first"
"684",43,114,114.01,3,1,"0",0,1,0.25,4,"ldrc_0_026","1",1,1,"A_first"
"685",44,116,116.01,3,1,"0",0,1,0.3,4,"ldrc_0_026","1",1,1,"A_first"
"686",45,121,121.02,1,1,"4",0.529504,0,0,1,"ldrc_0_026","1",1,1,"A_first"
"687",46,123,123.02,1,1,"4",0.545706,0,0,1,"ldrc_0_026","1",1,1,"A_first"
"688",47,125,125.02,1,1,"4",0.419857,0,0,1,"ldrc_0_026","1",1,1,"A_first"
"689",48,128,128,0,0,"1",0.597357,0,0,1,"ldrc_0_026","1",1,1,"A_first"
"690",49,130,130,3,1,"4",0.556652,1,0.35,3,"ldrc_0_026","1",1,1,"A_first"
"691",50,132,132,0,0,"0",0,0,0,5,"ldrc_0_026","1",1,1,"A_first"
"692",51,134,134,1,1,"0",0,0,0,5,"ldrc_0_026","1",1,1,"A_first"
"693",52,136,136.01,0,0,"0",0,0,0,5,"ldrc_0_026","1",1,1,"A_first"
"694",53,139,139.01,2,0,"1",0.526326,1,0.3,3,"ldrc_0_026","1",1,1,"A_first"
"695",54,144,144.01,0,0,"4",0.609373,0,0,0,"ldrc_0_026","1",1,1,"A_first"
"696",55,147,147.01,0,0,"0",0,0,0,5,"ldrc_0_026","1",1,1,"A_first"
"697",56,149,149.01,1,1,"4",0.994707,0,0,1,"ldrc_0_026","1",1,1,"A_first"
"698",57,153,153.01,1,1,"4",0.328946,0,0,1,"ldrc_0_026","1",1,1,"A_first"
"699",58,155,155.01,0,0,"1",0.699173,0,0,1,"ldrc_0_026","1",1,1,"A_first"
"700",59,157,157.01,3,1,"0",0,1,0.25,4,"ldrc_0_026","1",1,1,"A_first"
"701",60,163,163.02,1,1,"1",0.592089,0,0,0,"ldrc_0_026","1",1,1,"A_first"
"702",61,165,165.02,0,0,"1",0.831383,0,0,1,"ldrc_0_026","1",1,1,"A_first"
"703",62,167,167,0,0,"1",0.791041,0,0,1,"ldrc_0_026","1",1,1,"A_first"
"704",63,169,169,1,1,"0",0,0,0,5,"ldrc_0_026","1",1,1,"A_first"
"705",64,174,174,0,0,"1",0.511525,0,0,1,"ldrc_0_026","1",1,1,"A_first"
"706",65,177,177.01,0,0,"1",0.626405,0,0,1,"ldrc_0_026","1",1,1,"A_first"
"707",66,179,179.01,1,1,"0",0,0,0,5,"ldrc_0_026","1",1,1,"A_first"
"708",67,181,181.01,0,0,"1",0.616959,0,0,1,"ldrc_0_026","1",1,1,"A_first"
"709",68,183,183.01,1,1,"4",0.438123,0,0,1,"ldrc_0_026","1",1,1,"A_first"
"710",69,186,186.01,3,1,"1",0.385999,1,0.3,2,"ldrc_0_026","1",1,1,"A_first"
"711",70,188,188.01,3,1,"0",0,1,0.25,4,"ldrc_0_026","1",1,1,"A_first"
"712",71,192,192.01,0,0,"1",0.499502,0,0,1,"ldrc_0_026","1",1,1,"A_first"
"713",72,195,195.01,0,0,"1",0.586383,0,0,1,"ldrc_0_026","1",1,1,"A_first"
"714",73,197,197.01,3,1,"0",0,1,0.3,4,"ldrc_0_026","1",1,1,"A_first"
"715",74,199,199.01,1,1,"4",0.542979,0,0,1,"ldrc_0_026","1",1,1,"A_first"
"716",75,203,203.02,0,0,"1",0.526387,0,0,1,"ldrc_0_026","1",1,1,"A_first"
"717",76,206,206.02,0,0,"1",0.515341,0,0,1,"ldrc_0_026","1",1,1,"A_first"
"718",77,208,208,1,1,"4",0.395121,0,0,1,"ldrc_0_026","1",1,1,"A_first"
"719",78,210,210,0,0,"1",0.453425,0,0,1,"ldrc_0_026","1",1,1,"A_first"
"720",79,214,214,3,1,"4",0.509887,1,0.35,3,"ldrc_0_026","1",1,1,"A_first"
"721",80,217,217.01,2,0,"0",0,1,0.3,4,"ldrc_0_026","1",1,1,"A_first"
"722",81,219,219.01,0,0,"1",0.926033,0,0,1,"ldrc_0_026","1",1,1,"A_first"
"723",82,221,221.01,1,1,"4",0.571224,0,0,1,"ldrc_0_026","1",1,1,"A_first"
"724",83,223,223.01,0,0,"1",0.312325,0,0,1,"ldrc_0_026","1",1,1,"A_first"
"725",84,225,225.01,0,0,"1",0.541758,0,0,1,"ldrc_0_026","1",1,1,"A_first"
"726",85,227,227.01,1,1,"4",0.348974,0,0,1,"ldrc_0_026","1",1,1,"A_first"
"727",86,230,230.01,1,1,"4",0.489797,0,0,1,"ldrc_0_026","1",1,1,"A_first"
"728",87,232,232.01,1,1,"4",0.717844,0,0,1,"ldrc_0_026","1",1,1,"A_first"
"729",88,234,234.01,0,0,"1",0.538262,0,0,1,"ldrc_0_026","1",1,1,"A_first"
"730",89,238,238.01,0,0,"1",0.498793,0,0,1,"ldrc_0_026","1",1,1,"A_first"
"731",90,240,240.01,0,0,"1",0.445986,0,0,1,"ldrc_0_026","1",1,1,"A_first"
"732",91,242,242.02,0,0,"1",0.482278,0,0,1,"ldrc_0_026","1",1,1,"A_first"
"733",92,249,249.02,1,1,"4",0.462507,0,0,1,"ldrc_0_026","1",1,1,"A_first"
"734",93,253,253,1,1,"4",0.526575,0,0,1,"ldrc_0_026","1",1,1,"A_first"
"735",94,257,257,2,0,"1",0.483219,1,0.35,3,"ldrc_0_026","1",1,1,"A_first"
"736",95,259,259.01,3,1,"0",0,1,0.3,4,"ldrc_0_026","1",1,1,"A_first"
"737",96,261,261.01,2,0,"1",0.814773,1,0.35,3,"ldrc_0_026","1",1,1,"A_first"
"738",97,265,265.01,0,0,"0",0,0,0,5,"ldrc_0_026","1",1,1,"A_first"
"739",98,271,271.01,2,0,"0",0,1,0.3,4,"ldrc_0_026","1",1,1,"A_first"
"740",99,276,276.01,2,0,"0",0,1,0.35,4,"ldrc_0_026","1",1,1,"A_first"
"741",100,278,278.01,2,0,"0",0,1,0.4,4,"ldrc_0_026","1",1,1,"A_first"
"742",101,280,280.01,1,1,"4",0.896475,0,0,1,"ldrc_0_026","1",1,1,"A_first"
"743",102,282,282.02,1,1,"4",0.649592,0,0,1,"ldrc_0_026","1",1,1,"A_first"
"744",103,284,284.02,0,0,"1",0.514843,0,0,1,"ldrc_0_026","1",1,1,"A_first"
"745",104,286,286.02,1,1,"4",0.389067,0,0,1,"ldrc_0_026","1",1,1,"A_first"
"746",105,288,288.02,1,1,"4",0.540287,0,0,1,"ldrc_0_026","1",1,1,"A_first"
"747",106,291,291,2,0,"1",0.532846,1,0.45,3,"ldrc_0_026","1",1,1,"A_first"
"748",107,295,295,0,0,"1",0.645276,0,0,1,"ldrc_0_026","1",1,1,"A_first"
"749",108,298,298.01,2,0,"1",0.561197,1,0.4,3,"ldrc_0_026","1",1,1,"A_first"
"750",109,300,300.01,2,0,"1",0.408434,1,0.35,3,"ldrc_0_026","1",1,1,"A_first"
"751",110,302,302.01,0,0,"1",0.820692,0,0,1,"ldrc_0_026","1",1,1,"A_first"
"752",111,305,305.01,1,1,"4",0.488504,0,0,1,"ldrc_0_026","1",1,1,"A_first"
"753",112,307,307.01,1,1,"4",0.83372,0,0,1,"ldrc_0_026","1",1,1,"A_first"
"754",113,309,309.01,0,0,"1",0.563922,0,0,1,"ldrc_0_026","1",1,1,"A_first"
"755",114,312,312.01,3,1,"4",0.361853,1,0.3,3,"ldrc_0_026","1",1,1,"A_first"
"756",115,317,317.01,0,0,"1",0.498851,0,0,1,"ldrc_0_026","1",1,1,"A_first"
"757",116,319,319.01,1,1,"4",0.537303,0,0,1,"ldrc_0_026","1",1,1,"A_first"
"758",117,321,321.01,0,0,"1",0.582359,0,0,1,"ldrc_0_026","1",1,1,"A_first"
"759",118,323,323.02,0,0,"4",0.469589,0,0,0,"ldrc_0_026","1",1,1,"A_first"
"760",119,325,325.02,1,1,"4",0.613937,0,0,1,"ldrc_0_026","1",1,1,"A_first"
"761",120,329,329.02,2,0,"4",0.850601,1,0.25,2,"ldrc_0_026","1",1,1,"A_first"
"762",121,331,331,1,1,"4",0.763214,0,0,1,"ldrc_0_026","1",1,1,"A_first"
"763",122,335,335,1,1,"4",0.640721,0,0,1,"ldrc_0_026","1",1,1,"A_first"
"764",123,337,337,1,1,"0",0,0,0,5,"ldrc_0_026","1",1,1,"A_first"
"765",124,339,339.01,1,1,"4",0.701164,0,0,1,"ldrc_0_026","1",1,1,"A_first"
"766",125,341,341.01,1,1,"4",0.720398,0,0,1,"ldrc_0_026","1",1,1,"A_first"
"767",126,343,343.01,1,1,"0",0,0,0,5,"ldrc_0_026","1",1,1,"A_first"
"768",127,348,348.01,2,0,"1",0.901805,1,0.2,3,"ldrc_0_026","1",1,1,"A_first"
"769",0,0,0.02,0,0,"1",0.632787,0,0,1,"ldrc_0_026","2",1,1,"A_first"
"770",1,2,2.02,0,0,"1",0.518984,0,0,1,"ldrc_0_026","2",1,1,"A_first"
"771",2,6,6.02,0,0,"1",0.556511,0,0,1,"ldrc_0_026","2",1,1,"A_first"
"772",3,8,8,1,1,"4",0.330437,0,0,1,"ldrc_0_026","2",1,1,"A_first"
"773",4,10,10,1,1,"4",0.432753,0,0,1,"ldrc_0_026","2",1,1,"A_first"
"774",5,12,12,1,1,"4",0.565831,0,0,1,"ldrc_0_026","2",1,1,"A_first"
"775",6,14,14.01,1,1,"4",0.419043,0,0,1,"ldrc_0_026","2",1,1,"A_first"
"776",7,16,16.01,1,1,"4",0.331328,0,0,1,"ldrc_0_026","2",1,1,"A_first"
"777",8,19,19.01,1,1,"4",0.500136,0,0,1,"ldrc_0_026","2",1,1,"A_first"
"778",9,21,21.01,0,0,"1",0.517425,0,0,1,"ldrc_0_026","2",1,1,"A_first"
"779",10,24,24.01,2,0,"1",0.496362,1,0.25,3,"ldrc_0_026","2",1,1,"A_first"
"780",11,29,29.01,3,1,"0",0,1,0.2,4,"ldrc_0_026","2",1,1,"A_first"
"781",12,31,31.01,0,0,"1",0.738613,0,0,1,"ldrc_0_026","2",1,1,"A_first"
"782",13,33,33.01,1,1,"4",0.486815,0,0,1,"ldrc_0_026","2",1,1,"A_first"
"783",14,35,35.01,3,1,"4",0.400164,1,0.25,3,"ldrc_0_026","2",1,1,"A_first"
"784",15,38,38.02,1,1,"4",0.570086,0,0,1,"ldrc_0_026","2",1,1,"A_first"
"785",16,40,40.02,1,1,"4",0.606087,0,0,1,"ldrc_0_026","2",1,1,"A_first"
"786",17,42,42.02,3,1,"0",0,1,0.2,4,"ldrc_0_026","2",1,1,"A_first"
"787",18,44,44.02,1,1,"4",0.52359,0,0,1,"ldrc_0_026","2",1,1,"A_first"
"788",19,46,46,1,1,"4",0.739556,0,0,1,"ldrc_0_026","2",1,1,"A_first"
"789",20,52,52,1,1,"4",0.513523,0,0,1,"ldrc_0_026","2",1,1,"A_first"
"790",21,55,55.01,1,1,"0",0,0,0,5,"ldrc_0_026","2",1,1,"A_first"
"791",22,57,57.01,1,1,"4",0.443408,0,0,1,"ldrc_0_026","2",1,1,"A_first"
"792",23,59,59.01,0,0,"1",0.750461,0,0,1,"ldrc_0_026","2",1,1,"A_first"
"793",24,61,61.01,0,0,"4",0.878791,0,0,0,"ldrc_0_026","2",1,1,"A_first"
"794",25,63,63.01,1,1,"4",0.743056,0,0,1,"ldrc_0_026","2",1,1,"A_first"
"795",26,65,65.01,0,0,"1",0.521218,0,0,1,"ldrc_0_026","2",1,1,"A_first"
"796",27,68,68.01,1,1,"4",0.430316,0,0,1,"ldrc_0_026","2",1,1,"A_first"
"797",28,71,71.01,0,0,"1",0.462028,0,0,1,"ldrc_0_026","2",1,1,"A_first"
"798",29,73,73.01,1,1,"4",0.55225,0,0,1,"ldrc_0_026","2",1,1,"A_first"
"799",30,80,80.02,2,0,"1",0.546499,1,0.25,3,"ldrc_0_026","2",1,1,"A_first"
"800",31,87,87.02,2,0,"1",0.570926,1,0.2,3,"ldrc_0_026","2",1,1,"A_first"
"801",32,89,89,1,1,"4",0.510783,0,0,1,"ldrc_0_026","2",1,1,"A_first"
"802",33,91,91,3,1,"0",0,1,0.15,4,"ldrc_0_026","2",1,1,"A_first"
"803",34,94,94,2,0,"1",0.48689,1,0.2,3,"ldrc_0_026","2",1,1,"A_first"
"804",35,96,96.01,0,0,"1",0.591015,0,0,1,"ldrc_0_026","2",1,1,"A_first"
"805",36,98,98.01,1,1,"4",0.331497,0,0,1,"ldrc_0_026","2",1,1,"A_first"
"806",37,100,100.01,0,0,"1",0.624573,0,0,1,"ldrc_0_026","2",1,1,"A_first"
"807",38,103,103.01,0,0,"1",0.646581,0,0,1,"ldrc_0_026","2",1,1,"A_first"
"808",39,106,106.01,2,0,"0",0,1,0.15,4,"ldrc_0_026","2",1,1,"A_first"
"809",40,108,108.01,0,0,"1",0.557521,0,0,1,"ldrc_0_026","2",1,1,"A_first"
"810",41,111,111.01,0,0,"1",0.424362,0,0,1,"ldrc_0_026","2",1,1,"A_first"
"811",42,113,113.01,3,1,"4",0.821609,1,0.2,3,"ldrc_0_026","2",1,1,"A_first"
"812",43,115,115.01,2,0,"1",0.428024,1,0.15,3,"ldrc_0_026","2",1,1,"A_first"
"813",44,118,118.01,3,1,"0",0,1,0.1,4,"ldrc_0_026","2",1,1,"A_first"
"814",45,120,120.02,1,1,"4",0.793897,0,0,1,"ldrc_0_026","2",1,1,"A_first"
"815",46,124,124.02,1,1,"4",0.437335,0,0,1,"ldrc_0_026","2",1,1,"A_first"
"816",47,126,126.02,0,0,"1",0.682659,0,0,1,"ldrc_0_026","2",1,1,"A_first"
"817",48,128,128,0,0,"1",0.947717,0,0,1,"ldrc_0_026","2",1,1,"A_first"
"818",49,130,130,2,0,"1",0.335701,1,0.15,3,"ldrc_0_026","2",1,1,"A_first"
"819",50,132,132,3,1,"4",0.435029,1,0.1,3,"ldrc_0_026","2",1,1,"A_first"
"820",51,134,134,3,1,"0",0,1,0.05,4,"ldrc_0_026","2",1,1,"A_first"
"821",52,136,136.01,0,0,"1",0.564435,0,0,1,"ldrc_0_026","2",1,1,"A_first"
"822",53,139,139.01,1,1,"4",0.467365,0,0,1,"ldrc_0_026","2",1,1,"A_first"
"823",54,142,142.01,0,0,"1",0.743196,0,0,1,"ldrc_0_026","2",1,1,"A_first"
"824",55,144,144.01,1,1,"4",0.504443,0,0,1,"ldrc_0_026","2",1,1,"A_first"
"825",56,146,146.01,1,1,"4",0.598708,0,0,1,"ldrc_0_026","2",1,1,"A_first"
"826",57,148,148.01,0,0,"1",0.365926,0,0,1,"ldrc_0_026","2",1,1,"A_first"
"827",58,150,150.01,1,1,"4",0.395096,0,0,1,"ldrc_0_026","2",1,1,"A_first"
"828",59,152,152.01,0,0,"1",0.492344,0,0,1,"ldrc_0_026","2",1,1,"A_first"
"829",60,154,154.01,0,0,"1",0.674558,0,0,1,"ldrc_0_026","2",1,1,"A_first"
"830",61,158,158.01,3,1,"4",0.485277,1,0.1,3,"ldrc_0_026","2",1,1,"A_first"
"831",62,161,161.02,2,0,"0",0,1,0.05,4,"ldrc_0_026","2",1,1,"A_first"
"832",63,163,163.02,2,0,"0",0,1,0.1,4,"ldrc_0_026","2",1,1,"A_first"
"833",64,171,171,0,0,"1",0.620795,0,0,1,"ldrc_0_026","2",1,1,"A_first"
"834",65,176,176,1,1,"4",0.490904,0,0,1,"ldrc_0_026","2",1,1,"A_first"
"835",66,179,179.01,0,0,"1",0.59177,0,0,1,"ldrc_0_026","2",1,1,"A_first"
"836",67,184,184.01,0,0,"1",0.484811,0,0,1,"ldrc_0_026","2",1,1,"A_first"
"837",68,186,186.01,0,0,"0",0,0,0,5,"ldrc_0_026","2",1,1,"A_first"
"838",69,190,190.01,0,0,"1",0.414498,0,0,1,"ldrc_0_026","2",1,1,"A_first"
"839",70,192,192.01,1,1,"4",0.396677,0,0,1,"ldrc_0_026","2",1,1,"A_first"
"840",71,194,194.01,1,1,"4",0.525017,0,0,1,"ldrc_0_026","2",1,1,"A_first"
"841",72,196,196.01,1,1,"4",0.428257,0,0,1,"ldrc_0_026","2",1,1,"A_first"
"842",73,199,199.01,2,0,"0",0,1,0.15,4,"ldrc_0_026","2",1,1,"A_first"
"843",74,201,201.02,3,1,"0",0,1,0.2,4,"ldrc_0_026","2",1,1,"A_first"
"844",75,204,204.02,2,0,"0",0,1,0.25,4,"ldrc_0_026","2",1,1,"A_first"
"845",76,207,207.02,1,1,"4",0.564083,0,0,1,"ldrc_0_026","2",1,1,"A_first"
"846",77,211,211,1,1,"4",0.961157,0,0,1,"ldrc_0_026","2",1,1,"A_first"
"847",78,214,214,0,0,"1",0.346959,0,0,1,"ldrc_0_026","2",1,1,"A_first"
"848",79,216,216,0,0,"1",0.551306,0,0,1,"ldrc_0_026","2",1,1,"A_first"
"849",80,219,219.01,0,0,"1",0.697095,0,0,1,"ldrc_0_026","2",1,1,"A_first"
"850",81,221,221.01,0,0,"1",0.909367,0,0,1,"ldrc_0_026","2",1,1,"A_first"
"851",82,225,225.01,3,1,"4",0.554871,1,0.3,3,"ldrc_0_026","2",1,1,"A_first"
"852",83,227,227.01,1,1,"0",0,0,0,5,"ldrc_0_026","2",1,1,"A_first"
"853",84,229,229.01,3,1,"0",0,1,0.25,4,"ldrc_0_026","2",1,1,"A_first"
"854",85,231,231.01,2,0,"0",0,1,0.3,4,"ldrc_0_026","2",1,1,"A_first"
"855",86,233,233.01,3,1,"4",0.450761,1,0.35,3,"ldrc_0_026","2",1,1,"A_first"
"856",87,238,238.01,1,1,"4",0.555898,0,0,1,"ldrc_0_026","2",1,1,"A_first"
"857",88,240,240.01,1,1,"4",0.666866,0,0,1,"ldrc_0_026","2",1,1,"A_first"
"858",89,244,244.02,1,1,"4",0.557585,0,0,1,"ldrc_0_026","2",1,1,"A_first"
"859",90,246,246.02,0,0,"1",0.522736,0,0,1,"ldrc_0_026","2",1,1,"A_first"
"860",91,248,248.02,1,1,"4",0.530177,0,0,1,"ldrc_0_026","2",1,1,"A_first"
"861",92,250,250,1,1,"0",0,0,0,5,"ldrc_0_026","2",1,1,"A_first"
"862",93,252,252,1,1,"0",0,0,0,5,"ldrc_0_026","2",1,1,"A_first"
"863",94,255,255,2,0,"1",0.46606,1,0.3,3,"ldrc_0_026","2",1,1,"A_first"
"864",95,257,257,1,1,"4",0.490232,0,0,1,"ldrc_0_026","2",1,1,"A_first"
"865",96,259,259.01,0,0,"1",0.454505,0,0,1,"ldrc_0_026","2",1,1,"A_first"
"866",97,261,261.01,0,0,"1",0.539767,0,0,1,"ldrc_0_026","2",1,1,"A_first"
"867",98,263,263.01,3,1,"4",0.379923,1,0.25,3,"ldrc_0_026","2",1,1,"A_first"
"868",99,265,265.01,0,0,"1",0.630251,0,0,1,"ldrc_0_026","2",1,1,"A_first"
"869",100,267,267.01,1,1,"0",0,0,0,5,"ldrc_0_026","2",1,1,"A_first"
"870",101,269,269.01,0,0,"1",0.605677,0,0,1,"ldrc_0_026","2",1,1,"A_first"
"871",102,274,274.01,3,1,"4",0.358798,1,0.2,3,"ldrc_0_026","2",1,1,"A_first"
"872",103,276,276.01,2,0,"1",0.803878,1,0.15,3,"ldrc_0_026","2",1,1,"A_first"
"873",104,279,279.01,0,0,"1",0.527899,0,0,1,"ldrc_0_026","2",1,1,"A_first"
"874",105,281,281.01,0,0,"1",0.817129,0,0,1,"ldrc_0_026","2",1,1,"A_first"
"875",106,286,286.02,1,1,"4",0.434168,0,0,1,"ldrc_0_026","2",1,1,"A_first"
"876",107,290,290.02,1,1,"4",0.626631,0,0,1,"ldrc_0_026","2",1,1,"A_first"
"877",108,293,293,0,0,"0",0,0,0,5,"ldrc_0_026","2",1,1,"A_first"
"878",109,295,295,0,0,"0",0,0,0,5,"ldrc_0_026","2",1,1,"A_first"
"879",110,297,297,1,1,"0",0,0,0,5,"ldrc_0_026","2",1,1,"A_first"
"880",111,300,300.01,0,0,"0",0,0,0,5,"ldrc_0_026","2",1,1,"A_first"
"881",112,302,302.01,0,0,"1",0.524642,0,0,1,"ldrc_0_026","2",1,1,"A_first"
"882",113,308,308.01,3,1,"4",0.668661,1,0.1,3,"ldrc_0_026","2",1,1,"A_first"
"883",114,310,310.01,0,0,"1",0.393616,0,0,1,"ldrc_0_026","2",1,1,"A_first"
"884",115,312,312.01,2,0,"1",0.842833,1,0.05,3,"ldrc_0_026","2",1,1,"A_first"
"885",116,314,314.01,0,0,"4",0.048182,0,0,0,"ldrc_0_026","2",1,1,"A_first"
"886",117,316,316.01,0,0,"1",0.394427,0,0,1,"ldrc_0_026","2",1,1,"A_first"
"887",118,318,318.01,0,0,"1",0.504529,0,0,1,"ldrc_0_026","2",1,1,"A_first"
"888",119,324,324.02,1,1,"4",0.457268,0,0,1,"ldrc_0_026","2",1,1,"A_first"
"889",120,326,326.02,1,1,"4",0.73954,0,0,1,"ldrc_0_026","2",1,1,"A_first"
"890",121,329,329.02,0,0,"1",0.456293,0,0,1,"ldrc_0_026","2",1,1,"A_first"
"891",122,331,331,0,0,"1",0.968262,0,0,1,"ldrc_0_026","2",1,1,"A_first"
"892",123,333,333,1,1,"4",0.466557,0,0,1,"ldrc_0_026","2",1,1,"A_first"
"893",124,337,337,1,1,"0",0,0,0,5,"ldrc_0_026","2",1,1,"A_first"
"894",125,339,339.01,2,0,"0",0,1,0,4,"ldrc_0_026","2",1,1,"A_first"
"895",126,344,344.01,1,1,"4",0.447323,0,0,1,"ldrc_0_026","2",1,1,"A_first"
"896",127,346,346.01,0,0,"1",0.861585,0,0,1,"ldrc_0_026","2",1,1,"A_first"
"897",0,0,0.02,0,0,"1",0.757687,0,0,1,"ldrc_0_054","1",1,1,"A_first"
"898",1,2,2.02,0,0,"1",0.533795,0,0,1,"ldrc_0_054","1",1,1,"A_first"
"899",2,6,6.02,0,0,"1",0.60313,0,0,1,"ldrc_0_054","1",1,1,"A_first"
"900",3,8,8,1,1,"4",0.616138,0,0,1,"ldrc_0_054","1",1,1,"A_first"
"901",4,10,10,1,1,"4",0.508403,0,0,1,"ldrc_0_054","1",1,1,"A_first"
"902",5,12,12,1,1,"4",0.293615,0,0,1,"ldrc_0_054","1",1,1,"A_first"
"903",6,14,14.01,1,1,"4",0.458898,0,0,1,"ldrc_0_054","1",1,1,"A_first"
"904",7,16,16.01,1,1,"4",0.413133,0,0,1,"ldrc_0_054","1",1,1,"A_first"
"905",8,19,19.01,1,1,"4",0.426015,0,0,1,"ldrc_0_054","1",1,1,"A_first"
"906",9,21,21.01,0,0,"4",0.349334,0,0,0,"ldrc_0_054","1",1,1,"A_first"
"907",10,24,24.01,2,0,"4",0.387161,1,0.25,2,"ldrc_0_054","1",1,1,"A_first"
"908",11,29,29.01,3,1,"0",0,1,0.2,4,"ldrc_0_054","1",1,1,"A_first"
"909",12,31,31.01,0,0,"1",0.473234,0,0,1,"ldrc_0_054","1",1,1,"A_first"
"910",13,33,33.01,1,1,"4",0.532757,0,0,1,"ldrc_0_054","1",1,1,"A_first"
"911",14,35,35.01,3,1,"0",0,1,0.25,4,"ldrc_0_054","1",1,1,"A_first"
"912",15,38,38.02,1,1,"4",0.573647,0,0,1,"ldrc_0_054","1",1,1,"A_first"
"913",16,40,40.02,1,1,"4",0.676896,0,0,1,"ldrc_0_054","1",1,1,"A_first"
"914",17,42,42.02,3,1,"4",0.38023,1,0.3,3,"ldrc_0_054","1",1,1,"A_first"
"915",18,44,44.02,1,1,"4",0.381454,0,0,1,"ldrc_0_054","1",1,1,"A_first"
"916",19,46,46,1,1,"4",0.430213,0,0,1,"ldrc_0_054","1",1,1,"A_first"
"917",20,52,52,1,1,"4",0.575254,0,0,1,"ldrc_0_054","1",1,1,"A_first"
"918",21,55,55.01,1,1,"4",0.469816,0,0,1,"ldrc_0_054","1",1,1,"A_first"
"919",22,57,57.01,1,1,"4",0.530062,0,0,1,"ldrc_0_054","1",1,1,"A_first"
"920",23,59,59.01,0,0,"1",0.585307,0,0,1,"ldrc_0_054","1",1,1,"A_first"
"921",24,61,61.01,0,0,"1",0.506547,0,0,1,"ldrc_0_054","1",1,1,"A_first"
"922",25,63,63.01,1,1,"4",0.441982,0,0,1,"ldrc_0_054","1",1,1,"A_first"
"923",26,65,65.01,0,0,"1",0.40605,0,0,1,"ldrc_0_054","1",1,1,"A_first"
"924",27,68,68.01,1,1,"4",0.415854,0,0,1,"ldrc_0_054","1",1,1,"A_first"
"925",28,71,71.01,0,0,"1",0.569746,0,0,1,"ldrc_0_054","1",1,1,"A_first"
"926",29,73,73.01,1,1,"4",0.431996,0,0,1,"ldrc_0_054","1",1,1,"A_first"
"927",30,80,80.02,2,0,"0",0,1,0.25,4,"ldrc_0_054","1",1,1,"A_first"
"928",31,87,87.02,2,0,"1",0.517965,1,0.3,3,"ldrc_0_054","1",1,1,"A_first"
"929",32,89,89,1,1,"4",0.464453,0,0,1,"ldrc_0_054","1",1,1,"A_first"
"930",33,91,91,3,1,"0",0,1,0.25,4,"ldrc_0_054","1",1,1,"A_first"
"931",34,94,94,2,0,"1",0.47443,1,0.3,3,"ldrc_0_054","1",1,1,"A_first"
"932",35,96,96.01,0,0,"0",0,0,0,5,"ldrc_0_054","1",1,1,"A_first"
"933",36,98,98.01,1,1,"4",0.607051,0,0,1,"ldrc_0_054","1",1,1,"A_first"
"934",37,100,100.01,0,0,"1",0.35329,0,0,1,"ldrc_0_054","1",1,1,"A_first"
"935",38,103,103.01,0,0,"1",0.589135,0,0,1,"ldrc_0_054","1",1,1,"A_first"
"936",39,106,106.01,2,0,"0",0,1,0.25,4,"ldrc_0_054","1",1,1,"A_first"
"937",40,108,108.01,0,0,"1",0.583138,0,0,1,"ldrc_0_054","1",1,1,"A_first"
"938",41,111,111.01,0,0,"1",0.671104,0,0,1,"ldrc_0_054","1",1,1,"A_first"
"939",42,113,113.01,3,1,"0",0,1,0.3,4,"ldrc_0_054","1",1,1,"A_first"
"940",43,115,115.01,2,0,"0",0,1,0.35,4,"ldrc_0_054","1",1,1,"A_first"
"941",44,118,118.01,3,1,"0",0,1,0.4,4,"ldrc_0_054","1",1,1,"A_first"
"942",45,120,120.02,1,1,"0",0,0,0,5,"ldrc_0_054","1",1,1,"A_first"
"943",46,124,124.02,1,1,"4",0.572034,0,0,1,"ldrc_0_054","1",1,1,"A_first"
"944",47,126,126.02,0,0,"1",0.491336,0,0,1,"ldrc_0_054","1",1,1,"A_first"
"945",48,128,128,0,0,"1",0.809126,0,0,1,"ldrc_0_054","1",1,1,"A_first"
"946",49,130,130,2,0,"1",0.546426,1,0.45,3,"ldrc_0_054","1",1,1,"A_first"
"947",50,132,132,3,1,"4",0.511686,1,0.4,3,"ldrc_0_054","1",1,1,"A_first"
"948",51,134,134,3,1,"0",0,1,0.35,4,"ldrc_0_054","1",1,1,"A_first"
"949",52,136,136.01,0,0,"1",0.858094,0,0,1,"ldrc_0_054","1",1,1,"A_first"
"950",53,139,139.01,1,1,"4",0.553947,0,0,1,"ldrc_0_054","1",1,1,"A_first"
"951",54,142,142.01,0,0,"1",0.538771,0,0,1,"ldrc_0_054","1",1,1,"A_first"
"952",55,144,144.01,1,1,"4",0.814126,0,0,1,"ldrc_0_054","1",1,1,"A_first"
"953",56,146,146.01,1,1,"4",0.545235,0,0,1,"ldrc_0_054","1",1,1,"A_first"
"954",57,148,148.01,0,0,"1",0.6034,0,0,1,"ldrc_0_054","1",1,1,"A_first"
"955",58,150,150.01,1,1,"4",0.599202,0,0,1,"ldrc_0_054","1",1,1,"A_first"
"956",59,152,152.01,0,0,"1",0.444023,0,0,1,"ldrc_0_054","1",1,1,"A_first"
"957",60,154,154.01,0,0,"1",0.715345,0,0,1,"ldrc_0_054","1",1,1,"A_first"
"958",61,158,158.01,3,1,"4",0.702723,1,0.4,3,"ldrc_0_054","1",1,1,"A_first"
"959",62,161,161.02,2,0,"1",0.469514,1,0.35,3,"ldrc_0_054","1",1,1,"A_first"
"960",63,163,163.02,2,0,"0",0,1,0.3,4,"ldrc_0_054","1",1,1,"A_first"
"961",64,171,171,0,0,"1",0.726383,0,0,1,"ldrc_0_054","1",1,1,"A_first"
"962",65,176,176.01,1,1,"4",0.818492,0,0,1,"ldrc_0_054","1",1,1,"A_first"
"963",66,179,179.01,0,0,"0",0,0,0,5,"ldrc_0_054","1",1,1,"A_first"
"964",67,184,184.01,0,0,"1",0.998333,0,0,1,"ldrc_0_054","1",1,1,"A_first"
"965",68,186,186.01,0,0,"1",0.608603,0,0,1,"ldrc_0_054","1",1,1,"A_first"
"966",69,190,190.01,0,0,"1",0.532124,0,0,1,"ldrc_0_054","1",1,1,"A_first"
"967",70,192,192.01,1,1,"0",0,0,0,5,"ldrc_0_054","1",1,1,"A_first"
"968",71,194,194.01,1,1,"4",0.627536,0,0,1,"ldrc_0_054","1",1,1,"A_first"
"969",72,196,196.01,1,1,"4",0.921803,0,0,1,"ldrc_0_054","1",1,1,"A_first"
"970",73,199,199.01,2,0,"1",0.439607,1,0.35,3,"ldrc_0_054","1",1,1,"A_first"
"971",74,201,201.02,3,1,"4",0.495046,1,0.3,3,"ldrc_0_054","1",1,1,"A_first"
"972",75,204,204.02,2,0,"0",0,1,0.25,4,"ldrc_0_054","1",1,1,"A_first"
"973",76,207,207.02,1,1,"4",0.663609,0,0,1,"ldrc_0_054","1",1,1,"A_first"
"974",77,211,211,1,1,"4",0.574518,0,0,1,"ldrc_0_054","1",1,1,"A_first"
"975",78,214,214,0,0,"1",0.520558,0,0,1,"ldrc_0_054","1",1,1,"A_first"
"976",79,216,216,0,0,"1",0.482829,0,0,1,"ldrc_0_054","1",1,1,"A_first"
"977",80,219,219.01,0,0,"1",0.509696,0,0,1,"ldrc_0_054","1",1,1,"A_first"
"978",81,221,221.01,0,0,"1",0.744894,0,0,1,"ldrc_0_054","1",1,1,"A_first"
"979",82,225,225.01,3,1,"0",0,1,0.3,4,"ldrc_0_054","1",1,1,"A_first"
"980",83,227,227.01,1,1,"4",0.927643,0,0,1,"ldrc_0_054","1",1,1,"A_first"
"981",84,229,229.01,3,1,"0",0,1,0.35,4,"ldrc_0_054","1",1,1,"A_first"
"982",85,231,231.01,2,0,"1",0.440192,1,0.4,3,"ldrc_0_054","1",1,1,"A_first"
"983",86,233,233.01,3,1,"4",0.447349,1,0.35,3,"ldrc_0_054","1",1,1,"A_first"
"984",87,238,238.01,1,1,"4",0.72634,0,0,1,"ldrc_0_054","1",1,1,"A_first"
"985",88,240,240.01,1,1,"4",0.685655,0,0,1,"ldrc_0_054","1",1,1,"A_first"
"986",89,244,244.02,1,1,"4",0.661066,0,0,1,"ldrc_0_054","1",1,1,"A_first"
"987",90,246,246.02,0,0,"1",0.886329,0,0,1,"ldrc_0_054","1",1,1,"A_first"
"988",91,248,248,1,1,"4",0.585199,0,0,1,"ldrc_0_054","1",1,1,"A_first"
"989",92,250,250,1,1,"4",0.473421,0,0,1,"ldrc_0_054","1",1,1,"A_first"
"990",93,252,252,1,1,"4",0.456634,0,0,1,"ldrc_0_054","1",1,1,"A_first"
"991",94,255,255,2,0,"0",0,1,0.3,4,"ldrc_0_054","1",1,1,"A_first"
"992",95,257,257.01,1,1,"4",0.700793,0,0,1,"ldrc_0_054","1",1,1,"A_first"
"993",96,259,259.01,0,0,"1",0.607038,0,0,1,"ldrc_0_054","1",1,1,"A_first"
"994",97,261,261.01,0,0,"4",0.53831,0,0,0,"ldrc_0_054","1",1,1,"A_first"
"995",98,263,263.01,3,1,"4",0.512445,1,0.35,3,"ldrc_0_054","1",1,1,"A_first"
"996",99,265,265.01,0,0,"1",0.458737,0,0,1,"ldrc_0_054","1",1,1,"A_first"
"997",100,267,267.01,1,1,"4",0.54691,0,0,1,"ldrc_0_054","1",1,1,"A_first"
"998",101,269,269.01,0,0,"1",0.396179,0,0,1,"ldrc_0_054","1",1,1,"A_first"
"999",102,274,274.01,3,1,"4",0.547278,1,0.3,3,"ldrc_0_054","1",1,1,"A_first"
"1000",103,276,276.01,2,0,"1",0.409606,1,0.25,3,"ldrc_0_054","1",1,1,"A_first"
"1001",104,279,279.01,0,0,"1",0.59829,0,0,1,"ldrc_0_054","1",1,1,"A_first"
"1002",105,281,281.01,0,0,"1",0.851616,0,0,1,"ldrc_0_054","1",1,1,"A_first"
"1003",106,286,286.02,1,1,"4",0.470639,0,0,1,"ldrc_0_054","1",1,1,"A_first"
"1004",107,290,290,1,1,"4",0.886936,0,0,1,"ldrc_0_054","1",1,1,"A_first"
"1005",108,293,293,0,0,"1",0.57263,0,0,1,"ldrc_0_054","1",1,1,"A_first"
"1006",109,295,295,0,0,"1",0.70885,0,0,1,"ldrc_0_054","1",1,1,"A_first"
"1007",110,297,297,1,1,"4",0.899121,0,0,1,"ldrc_0_054","1",1,1,"A_first"
"1008",111,300,300.01,0,0,"1",0.583798,0,0,1,"ldrc_0_054","1",1,1,"A_first"
"1009",112,302,302.01,0,0,"1",0.810295,0,0,1,"ldrc_0_054","1",1,1,"A_first"
"1010",113,308,308.01,3,1,"0",0,1,0.2,4,"ldrc_0_054","1",1,1,"A_first"
"1011",114,310,310.01,0,0,"1",0.953134,0,0,1,"ldrc_0_054","1",1,1,"A_first"
"1012",115,312,312.01,2,0,"0",0,1,0.25,4,"ldrc_0_054","1",1,1,"A_first"
"1013",116,314,314.01,0,0,"1",0.730585,0,0,1,"ldrc_0_054","1",1,1,"A_first"
"1014",117,316,316.01,0,0,"1",0.754786,0,0,1,"ldrc_0_054","1",1,1,"A_first"
"1015",118,318,318.01,0,0,"1",0.751073,0,0,1,"ldrc_0_054","1",1,1,"A_first"
"1016",119,324,324.02,1,1,"4",0.898683,0,0,1,"ldrc_0_054","1",1,1,"A_first"
"1017",120,326,326.02,1,1,"4",0.62296,0,0,1,"ldrc_0_054","1",1,1,"A_first"
"1018",121,329,329.02,0,0,"1",0.604863,0,0,1,"ldrc_0_054","1",1,1,"A_first"
"1019",122,331,331,0,0,"1",0.59167,0,0,1,"ldrc_0_054","1",1,1,"A_first"
"1020",123,333,333,1,1,"4",0.915042,0,0,1,"ldrc_0_054","1",1,1,"A_first"
"1021",124,337,337,1,1,"4",0.606463,0,0,1,"ldrc_0_054","1",1,1,"A_first"
"1022",125,339,339.01,2,0,"1",0.42673,1,0.3,3,"ldrc_0_054","1",1,1,"A_first"
"1023",126,344,344.01,1,1,"4",0.777741,0,0,1,"ldrc_0_054","1",1,1,"A_first"
"1024",127,346,346.01,0,0,"1",0.464024,0,0,1,"ldrc_0_054","1",1,1,"A_first"
"1025",0,0,0.02,1,1,"4",0.758538,0,0,1,"ldrc_0_054","2",1,1,"A_first"
"1026",1,2,2.02,1,1,"4",0.539711,0,0,1,"ldrc_0_054","2",1,1,"A_first"
"1027",2,5,5.02,1,1,"4",0.420541,0,0,1,"ldrc_0_054","2",1,1,"A_first"
"1028",3,12,12,0,0,"1",0.542485,0,0,1,"ldrc_0_054","2",1,1,"A_first"
"1029",4,14,14.01,3,1,"4",0.421882,1,0.25,3,"ldrc_0_054","2",1,1,"A_first"
"1030",5,16,16.01,3,1,"0",0,1,0.2,4,"ldrc_0_054","2",1,1,"A_first"
"1031",6,18,18.01,2,0,"0",0,1,0.25,4,"ldrc_0_054","2",1,1,"A_first"
"1032",7,21,21.01,0,0,"1",0.76212,0,0,1,"ldrc_0_054","2",1,1,"A_first"
"1033",8,23,23.01,1,1,"4",0.476284,0,0,1,"ldrc_0_054","2",1,1,"A_first"
"1034",9,25,25.01,0,0,"1",0.356437,0,0,1,"ldrc_0_054","2",1,1,"A_first"
"1035",10,34,34.01,0,0,"1",0.458009,0,0,1,"ldrc_0_054","2",1,1,"A_first"
"1036",11,36,36.01,1,1,"4",0.579339,0,0,1,"ldrc_0_054","2",1,1,"A_first"
"1037",12,39,39.02,1,1,"4",0.608244,0,0,1,"ldrc_0_054","2",1,1,"A_first"
"1038",13,41,41.02,0,0,"1",0.611406,0,0,1,"ldrc_0_054","2",1,1,"A_first"
"1039",14,43,43.02,0,0,"0",0,0,0,5,"ldrc_0_054","2",1,1,"A_first"
"1040",15,46,46.02,0,0,"1",0.580491,0,0,1,"ldrc_0_054","2",1,1,"A_first"
"1041",16,48,48,1,1,"4",0.536478,0,0,1,"ldrc_0_054","2",1,1,"A_first"
"1042",17,51,51,1,1,"4",0.798199,0,0,1,"ldrc_0_054","2",1,1,"A_first"
"1043",18,56,56.01,3,1,"0",0,1,0.3,4,"ldrc_0_054","2",1,1,"A_first"
"1044",19,58,58.01,3,1,"0",0,1,0.35,4,"ldrc_0_054","2",1,1,"A_first"
"1045",20,61,61.01,0,0,"1",0.515389,0,0,1,"ldrc_0_054","2",1,1,"A_first"
"1046",21,63,63.01,3,1,"0",0,1,0.4,4,"ldrc_0_054","2",1,1,"A_first"
"1047",22,66,66.01,1,1,"4",0.546505,0,0,1,"ldrc_0_054","2",1,1,"A_first"
"1048",23,69,69.01,1,1,"4",0.680375,0,0,1,"ldrc_0_054","2",1,1,"A_first"
"1049",24,71,71.01,0,0,"1",0.486513,0,0,1,"ldrc_0_054","2",1,1,"A_first"
"1050",25,73,73.01,0,0,"1",0.664756,0,0,1,"ldrc_0_054","2",1,1,"A_first"
"1051",26,75,75.01,0,0,"1",0.86187,0,0,1,"ldrc_0_054","2",1,1,"A_first"
"1052",27,77,77.01,1,1,"4",0.615344,0,0,1,"ldrc_0_054","2",1,1,"A_first"
"1053",28,79,79.02,1,1,"4",0.610663,0,0,1,"ldrc_0_054","2",1,1,"A_first"
"1054",29,81,81.02,1,1,"4",0.493736,0,0,1,"ldrc_0_054","2",1,1,"A_first"
"1055",30,83,83.02,0,0,"1",0.60101,0,0,1,"ldrc_0_054","2",1,1,"A_first"
"1056",31,86,86,2,0,"1",0.666468,1,0.45,3,"ldrc_0_054","2",1,1,"A_first"
"1057",32,88,88,2,0,"0",0,1,0.4,4,"ldrc_0_054","2",1,1,"A_first"
"1058",33,90,90,3,1,"0",0,1,0.45,4,"ldrc_0_054","2",1,1,"A_first"
"1059",34,93,93,1,1,"4",0.5789,0,0,1,"ldrc_0_054","2",1,1,"A_first"
"1060",35,95,95.01,1,1,"4",0.811139,0,0,1,"ldrc_0_054","2",1,1,"A_first"
"1061",36,97,97.01,1,1,"4",0.688293,0,0,1,"ldrc_0_054","2",1,1,"A_first"
"1062",37,100,100.01,0,0,"1",0.467098,0,0,1,"ldrc_0_054","2",1,1,"A_first"
"1063",38,103,103.01,0,0,"4",0.593072,0,0,0,"ldrc_0_054","2",1,1,"A_first"
"1064",39,105,105.01,0,0,"1",0.628248,0,0,1,"ldrc_0_054","2",1,1,"A_first"
"1065",40,108,108.01,0,0,"1",0.556139,0,0,1,"ldrc_0_054","2",1,1,"A_first"
"1066",41,110,110.01,0,0,"1",0.633357,0,0,1,"ldrc_0_054","2",1,1,"A_first"
"1067",42,112,112.01,2,0,"1",0.670557,1,0.5,3,"ldrc_0_054","2",1,1,"A_first"
"1068",43,114,114.01,3,1,"4",0.520811,1,0.45,3,"ldrc_0_054","2",1,1,"A_first"
"1069",44,116,116.01,3,1,"4",0.632245,1,0.4,3,"ldrc_0_054","2",1,1,"A_first"
"1070",45,121,121.02,1,1,"4",0.744119,0,0,1,"ldrc_0_054","2",1,1,"A_first"
"1071",46,123,123.02,1,1,"4",0.703287,0,0,1,"ldrc_0_054","2",1,1,"A_first"
"1072",47,125,125.02,1,1,"4",0.582432,0,0,1,"ldrc_0_054","2",1,1,"A_first"
"1073",48,128,128,0,0,"1",0.624964,0,0,1,"ldrc_0_054","2",1,1,"A_first"
"1074",49,130,130,3,1,"4",0.513191,1,0.35,3,"ldrc_0_054","2",1,1,"A_first"
"1075",50,132,132,0,0,"1",0.580482,0,0,1,"ldrc_0_054","2",1,1,"A_first"
"1076",51,134,134,1,1,"4",0.570765,0,0,1,"ldrc_0_054","2",1,1,"A_first"
"1077",52,136,136.01,0,0,"1",0.626013,0,0,1,"ldrc_0_054","2",1,1,"A_first"
"1078",53,139,139.01,2,0,"0",0,1,0.3,4,"ldrc_0_054","2",1,1,"A_first"
"1079",54,144,144.01,0,0,"1",0.593955,0,0,1,"ldrc_0_054","2",1,1,"A_first"
"1080",55,147,147.01,0,0,"1",0.579766,0,0,1,"ldrc_0_054","2",1,1,"A_first"
"1081",56,149,149.01,1,1,"4",0.81709,0,0,1,"ldrc_0_054","2",1,1,"A_first"
"1082",57,153,153.01,1,1,"4",0.596502,0,0,1,"ldrc_0_054","2",1,1,"A_first"
"1083",58,155,155.01,0,0,"1",0.666802,0,0,1,"ldrc_0_054","2",1,1,"A_first"
"1084",59,157,157.01,3,1,"4",0.479035,1,0.35,3,"ldrc_0_054","2",1,1,"A_first"
"1085",60,163,163.02,1,1,"4",0.506739,0,0,1,"ldrc_0_054","2",1,1,"A_first"
"1086",61,165,165.02,0,0,"1",0.655943,0,0,1,"ldrc_0_054","2",1,1,"A_first"
"1087",62,167,167,0,0,"1",0.618741,0,0,1,"ldrc_0_054","2",1,1,"A_first"
"1088",63,169,169,1,1,"4",0.613149,0,0,1,"ldrc_0_054","2",1,1,"A_first"
"1089",64,174,174,0,0,"1",0.638069,0,0,1,"ldrc_0_054","2",1,1,"A_first"
"1090",65,177,177.01,0,0,"1",0.76304,0,0,1,"ldrc_0_054","2",1,1,"A_first"
"1091",66,179,179.01,1,1,"4",0.80438,0,0,1,"ldrc_0_054","2",1,1,"A_first"
"1092",67,181,181.01,0,0,"0",0,0,0,5,"ldrc_0_054","2",1,1,"A_first"
"1093",68,183,183.01,1,1,"4",0.426629,0,0,1,"ldrc_0_054","2",1,1,"A_first"
"1094",69,186,186.01,3,1,"0",0,1,0.3,4,"ldrc_0_054","2",1,1,"A_first"
"1095",70,188,188.01,3,1,"4",0.527716,1,0.35,3,"ldrc_0_054","2",1,1,"A_first"
"1096",71,192,192.01,0,0,"1",0.601143,0,0,1,"ldrc_0_054","2",1,1,"A_first"
"1097",72,195,195.01,0,0,"1",0.777106,0,0,1,"ldrc_0_054","2",1,1,"A_first"
"1098",73,197,197.01,3,1,"0",0,1,0.3,4,"ldrc_0_054","2",1,1,"A_first"
"1099",74,199,199.01,1,1,"4",0.932649,0,0,1,"ldrc_0_054","2",1,1,"A_first"
"1100",75,203,203.02,0,0,"1",0.622035,0,0,1,"ldrc_0_054","2",1,1,"A_first"
"1101",76,206,206.02,0,0,"1",0.63088,0,0,1,"ldrc_0_054","2",1,1,"A_first"
"1102",77,208,208,1,1,"4",0.840762,0,0,1,"ldrc_0_054","2",1,1,"A_first"
"1103",78,210,210,0,0,"1",0.546901,0,0,1,"ldrc_0_054","2",1,1,"A_first"
"1104",79,214,214,3,1,"0",0,1,0.35,4,"ldrc_0_054","2",1,1,"A_first"
"1105",80,217,217.01,2,0,"0",0,1,0.4,4,"ldrc_0_054","2",1,1,"A_first"
"1106",81,219,219.01,0,0,"1",0.800432,0,0,1,"ldrc_0_054","2",1,1,"A_first"
"1107",82,221,221.01,1,1,"4",0.656839,0,0,1,"ldrc_0_054","2",1,1,"A_first"
"1108",83,223,223.01,0,0,"1",0.614073,0,0,1,"ldrc_0_054","2",1,1,"A_first"
"1109",84,225,225.01,0,0,"1",0.443285,0,0,1,"ldrc_0_054","2",1,1,"A_first"
"1110",85,227,227.01,1,1,"4",0.652572,0,0,1,"ldrc_0_054","2",1,1,"A_first"
"1111",86,230,230.01,1,1,"4",0.572241,0,0,1,"ldrc_0_054","2",1,1,"A_first"
"1112",87,232,232.01,1,1,"4",0.800491,0,0,1,"ldrc_0_054","2",1,1,"A_first"
"1113",88,234,234.01,0,0,"1",0.803799,0,0,1,"ldrc_0_054","2",1,1,"A_first"
"1114",89,238,238.01,0,0,"1",0.820347,0,0,1,"ldrc_0_054","2",1,1,"A_first"
"1115",90,240,240.01,0,0,"1",0.86933,0,0,1,"ldrc_0_054","2",1,1,"A_first"
"1116",91,242,242.02,0,0,"1",0.756715,0,0,1,"ldrc_0_054","2",1,1,"A_first"
"1117",92,249,249.02,1,1,"4",0.780022,0,0,1,"ldrc_0_054","2",1,1,"A_first"
"1118",93,253,253,1,1,"4",0.710197,0,0,1,"ldrc_0_054","2",1,1,"A_first"
"1119",94,257,257.01,2,0,"1",0.796772,1,0.45,3,"ldrc_0_054","2",1,1,"A_first"
"1120",95,259,259.01,3,1,"0",0,1,0.4,4,"ldrc_0_054","2",1,1,"A_first"
"1121",96,261,261.01,2,0,"0",0,1,0.45,4,"ldrc_0_054","2",1,1,"A_first"
"1122",97,265,265.01,0,0,"1",0.5756,0,0,1,"ldrc_0_054","2",1,1,"A_first"
"1123",98,271,271.01,2,0,"1",0.80029,1,0.5,3,"ldrc_0_054","2",1,1,"A_first"
"1124",99,276,276.01,2,0,"0",0,1,0.45,4,"ldrc_0_054","2",1,1,"A_first"
"1125",100,278,278.01,2,0,"0",0,1,0.5,4,"ldrc_0_054","2",1,1,"A_first"
"1126",101,280,280.01,1,1,"4",0.589889,0,0,1,"ldrc_0_054","2",1,1,"A_first"
"1127",102,282,282.02,1,1,"4",0.625138,0,0,1,"ldrc_0_054","2",1,1,"A_first"
"1128",103,284,284.02,0,0,"0",0,0,0,5,"ldrc_0_054","2",1,1,"A_first"
"1129",104,286,286.02,1,1,"4",0.72761,0,0,1,"ldrc_0_054","2",1,1,"A_first"
"1130",105,288,288.02,1,1,"4",0.563793,0,0,1,"ldrc_0_054","2",1,1,"A_first"
"1131",106,291,291,2,0,"1",0.515105,1,0.55,3,"ldrc_0_054","2",1,1,"A_first"
"1132",107,295,295,0,0,"1",0.585647,0,0,1,"ldrc_0_054","2",1,1,"A_first"
"1133",108,298,298.01,2,0,"0",0,1,0.5,4,"ldrc_0_054","2",1,1,"A_first"
"1134",109,300,300.01,2,0,"0",0,1,0.55,4,"ldrc_0_054","2",1,1,"A_first"
"1135",110,302,302.01,0,0,"1",0.599147,0,0,1,"ldrc_0_054","2",1,1,"A_first"
"1136",111,305,305.01,1,1,"4",0.483062,0,0,1,"ldrc_0_054","2",1,1,"A_first"
"1137",112,307,307.01,1,1,"4",0.619228,0,0,1,"ldrc_0_054","2",1,1,"A_first"
"1138",113,309,309.01,0,0,"1",0.585384,0,0,1,"ldrc_0_054","2",1,1,"A_first"
"1139",114,312,312.01,3,1,"4",0.555198,1,0.6,3,"ldrc_0_054","2",1,1,"A_first"
"1140",115,317,317.01,0,0,"1",0.555336,0,0,1,"ldrc_0_054","2",1,1,"A_first"
"1141",116,319,319.01,1,1,"4",0.463682,0,0,1,"ldrc_0_054","2",1,1,"A_first"
"1142",117,321,321.01,0,0,"1",0.582824,0,0,1,"ldrc_0_054","2",1,1,"A_first"
"1143",118,323,323.02,0,0,"1",0.865046,0,0,1,"ldrc_0_054","2",1,1,"A_first"
"1144",119,325,325.02,1,1,"4",0.56139,0,0,1,"ldrc_0_054","2",1,1,"A_first"
"1145",120,329,329.02,2,0,"1",0.567431,1,0.55,3,"ldrc_0_054","2",1,1,"A_first"
"1146",121,331,331,1,1,"4",0.965685,0,0,1,"ldrc_0_054","2",1,1,"A_first"
"1147",122,335,335,1,1,"4",0.743158,0,0,1,"ldrc_0_054","2",1,1,"A_first"
"1148",123,337,337,1,1,"4",0.650373,0,0,1,"ldrc_0_054","2",1,1,"A_first"
"1149",124,339,339.01,1,1,"4",0.424555,0,0,1,"ldrc_0_054","2",1,1,"A_first"
"1150",125,341,341.01,1,1,"4",0.595686,0,0,1,"ldrc_0_054","2",1,1,"A_first"
"1151",126,343,343.01,1,1,"4",0.508851,0,0,1,"ldrc_0_054","2",1,1,"A_first"
"1152",127,348,348.01,2,0,"1",0.577057,1,0.5,3,"ldrc_0_054","2",1,1,"A_first"
"1153",0,0,0.02,1,1,"4",0.919933,0,0,1,"ldrc_0_057","2",1,1,"A_first"
"1154",1,2,2.02,1,1,"4",0.580042,0,0,1,"ldrc_0_057","2",1,1,"A_first"
"1155",2,5,5.02,1,1,"4",0.624001,0,0,1,"ldrc_0_057","2",1,1,"A_first"
"1156",3,12,12,0,0,"1",0.698995,0,0,1,"ldrc_0_057","2",1,1,"A_first"
"1157",4,14,14.01,3,1,"0",0,1,0.25,4,"ldrc_0_057","2",1,1,"A_first"
"1158",5,16,16.01,3,1,"4",0.491445,1,0.3,3,"ldrc_0_057","2",1,1,"A_first"
"1159",6,18,18.01,2,0,"0",0,1,0.25,4,"ldrc_0_057","2",1,1,"A_first"
"1160",7,21,21.01,0,0,"1",0.733511,0,0,1,"ldrc_0_057","2",1,1,"A_first"
"1161",8,23,23.01,1,1,"4",0.693802,0,0,1,"ldrc_0_057","2",1,1,"A_first"
"1162",9,25,25.01,0,0,"1",0.457076,0,0,1,"ldrc_0_057","2",1,1,"A_first"
"1163",10,34,34.01,0,0,"1",0.610599,0,0,1,"ldrc_0_057","2",1,1,"A_first"
"1164",11,36,36.01,1,1,"4",0.834774,0,0,1,"ldrc_0_057","2",1,1,"A_first"
"1165",12,39,39.02,1,1,"0",0,0,0,5,"ldrc_0_057","2",1,1,"A_first"
"1166",13,41,41.02,0,0,"1",0.729789,0,0,1,"ldrc_0_057","2",1,1,"A_first"
"1167",14,43,43.02,0,0,"1",0.540158,0,0,1,"ldrc_0_057","2",1,1,"A_first"
"1168",15,46,46,0,0,"1",0.593564,0,0,1,"ldrc_0_057","2",1,1,"A_first"
"1169",16,48,48,1,1,"4",0.85184,0,0,1,"ldrc_0_057","2",1,1,"A_first"
"1170",17,51,51,1,1,"4",0.720729,0,0,1,"ldrc_0_057","2",1,1,"A_first"
"1171",18,56,56.01,3,1,"0",0,1,0.3,4,"ldrc_0_057","2",1,1,"A_first"
"1172",19,58,58.01,3,1,"0",0,1,0.35,4,"ldrc_0_057","2",1,1,"A_first"
"1173",20,61,61.01,0,0,"1",0.751891,0,0,1,"ldrc_0_057","2",1,1,"A_first"
"1174",21,63,63.01,3,1,"0",0,1,0.4,4,"ldrc_0_057","2",1,1,"A_first"
"1175",22,66,66.01,1,1,"4",0.76597,0,0,1,"ldrc_0_057","2",1,1,"A_first"
"1176",23,69,69.01,1,1,"4",0.681864,0,0,1,"ldrc_0_057","2",1,1,"A_first"
"1177",24,71,71.01,0,0,"1",0.726979,0,0,1,"ldrc_0_057","2",1,1,"A_first"
"1178",25,73,73.01,0,0,"1",0.82829,0,0,1,"ldrc_0_057","2",1,1,"A_first"
"1179",26,75,75.01,0,0,"1",0.838593,0,0,1,"ldrc_0_057","2",1,1,"A_first"
"1180",27,77,77.01,1,1,"4",0.699781,0,0,1,"ldrc_0_057","2",1,1,"A_first"
"1181",28,79,79.02,1,1,"4",0.715,0,0,1,"ldrc_0_057","2",1,1,"A_first"
"1182",29,81,81.02,1,1,"4",0.524217,0,0,1,"ldrc_0_057","2",1,1,"A_first"
"1183",30,83,83.02,0,0,"1",0.784427,0,0,1,"ldrc_0_057","2",1,1,"A_first"
"1184",31,86,86.02,2,0,"1",0.633272,1,0.45,3,"ldrc_0_057","2",1,1,"A_first"
"1185",32,88,88,2,0,"0",0,1,0.4,4,"ldrc_0_057","2",1,1,"A_first"
"1186",33,90,90,3,1,"0",0,1,0.45,4,"ldrc_0_057","2",1,1,"A_first"
"1187",34,93,93,1,1,"0",0,0,0,5,"ldrc_0_057","2",1,1,"A_first"
"1188",35,95,95.01,1,1,"4",0.493479,0,0,1,"ldrc_0_057","2",1,1,"A_first"
"1189",36,97,97.01,1,1,"4",0.368818,0,0,1,"ldrc_0_057","2",1,1,"A_first"
"1190",37,100,100.01,0,0,"1",0.630637,0,0,1,"ldrc_0_057","2",1,1,"A_first"
"1191",38,103,103.01,0,0,"1",0.578415,0,0,1,"ldrc_0_057","2",1,1,"A_first"
"1192",39,105,105.01,0,0,"0",0,0,0,5,"ldrc_0_057","2",1,1,"A_first"
"1193",40,108,108.01,0,0,"1",0.543581,0,0,1,"ldrc_0_057","2",1,1,"A_first"
"1194",41,110,110.01,0,0,"1",0.442746,0,0,1,"ldrc_0_057","2",1,1,"A_first"
"1195",42,112,112.01,2,0,"1",0.335053,1,0.5,3,"ldrc_0_057","2",1,1,"A_first"
"1196",43,114,114.01,3,1,"0",0,1,0.45,4,"ldrc_0_057","2",1,1,"A_first"
"1197",44,116,116.01,3,1,"0",0,1,0.5,4,"ldrc_0_057","2",1,1,"A_first"
"1198",45,121,121.02,1,1,"4",0.686597,0,0,1,"ldrc_0_057","2",1,1,"A_first"
"1199",46,123,123.02,1,1,"4",0.529809,0,0,1,"ldrc_0_057","2",1,1,"A_first"
"1200",47,125,125,1,1,"4",0.535615,0,0,1,"ldrc_0_057","2",1,1,"A_first"
"1201",48,128,128,0,0,"1",0.765594,0,0,1,"ldrc_0_057","2",1,1,"A_first"
"1202",49,130,130,3,1,"4",0.739766,1,0.55,3,"ldrc_0_057","2",1,1,"A_first"
"1203",50,132,132,0,0,"1",0.810887,0,0,1,"ldrc_0_057","2",1,1,"A_first"
"1204",51,134,134,1,1,"4",0.925256,0,0,1,"ldrc_0_057","2",1,1,"A_first"
"1205",52,136,136.01,0,0,"1",0.775348,0,0,1,"ldrc_0_057","2",1,1,"A_first"
"1206",53,139,139.01,2,0,"0",0,1,0.5,4,"ldrc_0_057","2",1,1,"A_first"
"1207",54,144,144.01,0,0,"1",0.604418,0,0,1,"ldrc_0_057","2",1,1,"A_first"
"1208",55,147,147.01,0,0,"1",0.642232,0,0,1,"ldrc_0_057","2",1,1,"A_first"
"1209",56,149,149.01,1,1,"4",0.658568,0,0,1,"ldrc_0_057","2",1,1,"A_first"
"1210",57,153,153.01,1,1,"4",0.796004,0,0,1,"ldrc_0_057","2",1,1,"A_first"
"1211",58,155,155.01,0,0,"1",0.77326,0,0,1,"ldrc_0_057","2",1,1,"A_first"
"1212",59,157,157.01,3,1,"4",0.72948,1,0.55,3,"ldrc_0_057","2",1,1,"A_first"
"1213",60,163,163.02,1,1,"4",0.79228,0,0,1,"ldrc_0_057","2",1,1,"A_first"
"1214",61,165,165.02,0,0,"0",0,0,0,5,"ldrc_0_057","2",1,1,"A_first"
"1215",62,167,167,0,0,"1",0.574271,0,0,1,"ldrc_0_057","2",1,1,"A_first"
"1216",63,169,169,1,1,"4",0.835455,0,0,1,"ldrc_0_057","2",1,1,"A_first"
"1217",64,174,174,0,0,"1",0.665612,0,0,1,"ldrc_0_057","2",1,1,"A_first"
"1218",65,177,177.01,0,0,"1",0.695404,0,0,1,"ldrc_0_057","2",1,1,"A_first"
"1219",66,179,179.01,1,1,"4",0.809869,0,0,1,"ldrc_0_057","2",1,1,"A_first"
"1220",67,181,181.01,0,0,"1",0.758877,0,0,1,"ldrc_0_057","2",1,1,"A_first"
"1221",68,183,183.01,1,1,"4",0.936123,0,0,1,"ldrc_0_057","2",1,1,"A_first"
"1222",69,186,186.01,3,1,"0",0,1,0.5,4,"ldrc_0_057","2",1,1,"A_first"
"1223",70,188,188.01,3,1,"4",0.739199,1,0.55,3,"ldrc_0_057","2",1,1,"A_first"
"1224",71,192,192.01,0,0,"1",0.621625,0,0,1,"ldrc_0_057","2",1,1,"A_first"
"1225",72,195,195.01,0,0,"1",0.622491,0,0,1,"ldrc_0_057","2",1,1,"A_first"
"1226",73,197,197.01,3,1,"4",0.555747,1,0.5,3,"ldrc_0_057","2",1,1,"A_first"
"1227",74,199,199.01,1,1,"0",0,0,0,5,"ldrc_0_057","2",1,1,"A_first"
"1228",75,203,203.02,0,0,"1",0.788509,0,0,1,"ldrc_0_057","2",1,1,"A_first"
"1229",76,206,206.02,0,0,"1",0.790229,0,0,1,"ldrc_0_057","2",1,1,"A_first"
"1230",77,208,208,1,1,"4",0.911981,0,0,1,"ldrc_0_057","2",1,1,"A_first"
"1231",78,210,210,0,0,"1",0.620501,0,0,1,"ldrc_0_057","2",1,1,"A_first"
"1232",79,214,214,3,1,"0",0,1,0.45,4,"ldrc_0_057","2",1,1,"A_first"
"1233",80,217,217.01,2,0,"0",0,1,0.5,4,"ldrc_0_057","2",1,1,"A_first"
"1234",81,219,219.01,0,0,"1",0.770993,0,0,1,"ldrc_0_057","2",1,1,"A_first"
"1235",82,221,221.01,1,1,"4",0.54533,0,0,1,"ldrc_0_057","2",1,1,"A_first"
"1236",83,223,223.01,0,0,"1",0.859674,0,0,1,"ldrc_0_057","2",1,1,"A_first"
"1237",84,225,225.01,0,0,"1",0.903692,0,0,1,"ldrc_0_057","2",1,1,"A_first"
"1238",85,227,227.01,1,1,"0",0,0,0,5,"ldrc_0_057","2",1,1,"A_first"
"1239",86,230,230.01,1,1,"1",0.58474,0,0,0,"ldrc_0_057","2",1,1,"A_first"
"1240",87,232,232.01,1,1,"4",0.585977,0,0,1,"ldrc_0_057","2",1,1,"A_first"
"1241",88,234,234.01,0,0,"1",0.969339,0,0,1,"ldrc_0_057","2",1,1,"A_first"
"1242",89,238,238.01,0,0,"1",0.997818,0,0,1,"ldrc_0_057","2",1,1,"A_first"
"1243",90,240,240.01,0,0,"0",0,0,0,5,"ldrc_0_057","2",1,1,"A_first"
"1244",91,242,242.02,0,0,"1",0.390142,0,0,1,"ldrc_0_057","2",1,1,"A_first"
"1245",92,249,249.02,1,1,"4",0.968477,0,0,1,"ldrc_0_057","2",1,1,"A_first"
"1246",93,253,253,1,1,"4",0.913868,0,0,1,"ldrc_0_057","2",1,1,"A_first"
"1247",94,257,257.01,2,0,"0",0,1,0.55,4,"ldrc_0_057","2",1,1,"A_first"
"1248",95,259,259.01,3,1,"4",0.657364,1,0.6,3,"ldrc_0_057","2",1,1,"A_first"
"1249",96,261,261.01,2,0,"0",0,1,0.55,4,"ldrc_0_057","2",1,1,"A_first"
"1250",97,265,265.01,0,0,"1",0.891042,0,0,1,"ldrc_0_057","2",1,1,"A_first"
"1251",98,271,271.01,2,0,"1",0.717692,1,0.6,3,"ldrc_0_057","2",1,1,"A_first"
"1252",99,276,276.01,2,0,"0",0,1,0.55,4,"ldrc_0_057","2",1,1,"A_first"
"1253",100,278,278.01,2,0,"0",0,1,0.6,4,"ldrc_0_057","2",1,1,"A_first"
"1254",101,280,280.01,1,1,"0",0,0,0,5,"ldrc_0_057","2",1,1,"A_first"
"1255",102,282,282.02,1,1,"4",0.428546,0,0,1,"ldrc_0_057","2",1,1,"A_first"
"1256",103,284,284.02,0,0,"4",0.417703,0,0,0,"ldrc_0_057","2",1,1,"A_first"
"1257",104,286,286.02,1,1,"4",0.712995,0,0,1,"ldrc_0_057","2",1,1,"A_first"
"1258",105,288,288.02,1,1,"4",0.555091,0,0,1,"ldrc_0_057","2",1,1,"A_first"
"1259",106,291,291,2,0,"1",0.618602,1,0.65,3,"ldrc_0_057","2",1,1,"A_first"
"1260",107,295,295,0,0,"0",0,0,0,5,"ldrc_0_057","2",1,1,"A_first"
"1261",108,298,298.01,2,0,"1",0.523143,1,0.6,3,"ldrc_0_057","2",1,1,"A_first"
"1262",109,300,300.01,2,0,"1",0.588262,1,0.55,3,"ldrc_0_057","2",1,1,"A_first"
"1263",110,302,302.01,0,0,"1",0.585477,0,0,1,"ldrc_0_057","2",1,1,"A_first"
"1264",111,305,305.01,1,1,"4",0.59937,0,0,1,"ldrc_0_057","2",1,1,"A_first"
"1265",112,307,307.01,1,1,"4",0.918765,0,0,1,"ldrc_0_057","2",1,1,"A_first"
"1266",113,309,309.01,0,0,"1",0.680809,0,0,1,"ldrc_0_057","2",1,1,"A_first"
"1267",114,312,312.01,3,1,"4",0.95883,1,0.5,3,"ldrc_0_057","2",1,1,"A_first"
"1268",115,317,317.01,0,0,"0",0,0,0,5,"ldrc_0_057","2",1,1,"A_first"
"1269",116,319,319.01,1,1,"4",0.657924,0,0,1,"ldrc_0_057","2",1,1,"A_first"
"1270",117,321,321.01,0,0,"1",0.694214,0,0,1,"ldrc_0_057","2",1,1,"A_first"
"1271",118,323,323.02,0,0,"1",0.671517,0,0,1,"ldrc_0_057","2",1,1,"A_first"
"1272",119,325,325.02,1,1,"4",0.609672,0,0,1,"ldrc_0_057","2",1,1,"A_first"
"1273",120,329,329.02,2,0,"0",0,1,0.45,4,"ldrc_0_057","2",1,1,"A_first"
"1274",121,331,331,1,1,"4",0.980978,0,0,1,"ldrc_0_057","2",1,1,"A_first"
"1275",122,335,335,1,1,"4",0.639613,0,0,1,"ldrc_0_057","2",1,1,"A_first"
"1276",123,337,337,1,1,"4",0.699913,0,0,1,"ldrc_0_057","2",1,1,"A_first"
"1277",124,339,339.01,1,1,"4",0.589074,0,0,1,"ldrc_0_057","2",1,1,"A_first"
"1278",125,341,341.01,1,1,"4",0.934279,0,0,1,"ldrc_0_057","2",1,1,"A_first"
"1279",126,343,343.01,1,1,"4",0.646496,0,0,1,"ldrc_0_057","2",1,1,"A_first"
"1280",127,348,348.01,2,0,"1",0.802547,1,0.5,3,"ldrc_0_057","2",1,1,"A_first"
"1281",0,0,0.02,1,1,"0",0,0,0,5,"ldrc_1_004","1",1,1,"A_first"
"1282",1,2,2.02,1,1,"4",0.541895,0,0,1,"ldrc_1_004","1",1,1,"A_first"
"1283",2,5,5.02,1,1,"4",0.608853,0,0,1,"ldrc_1_004","1",1,1,"A_first"
"1284",3,12,12,0,0,"1",0.600767,0,0,1,"ldrc_1_004","1",1,1,"A_first"
"1285",4,14,14.01,3,1,"4",0.4842,1,0.25,3,"ldrc_1_004","1",1,1,"A_first"
"1286",5,16,16.01,3,1,"4",0.551307,1,0.2,3,"ldrc_1_004","1",1,1,"A_first"
"1287",6,18,18.01,2,0,"1",0.549525,1,0.15,3,"ldrc_1_004","1",1,1,"A_first"
"1288",7,21,21.01,0,0,"1",0.880471,0,0,1,"ldrc_1_004","1",1,1,"A_first"
"1289",8,23,23.01,1,1,"4",0.577645,0,0,1,"ldrc_1_004","1",1,1,"A_first"
"1290",9,25,25.01,0,0,"1",0.362865,0,0,1,"ldrc_1_004","1",1,1,"A_first"
"1291",10,34,34.01,0,0,"1",0.6064,0,0,1,"ldrc_1_004","1",1,1,"A_first"
"1292",11,36,36.01,1,1,"1",0.560612,0,0,0,"ldrc_1_004","1",1,1,"A_first"
"1293",12,39,39.02,1,1,"4",0.590412,0,0,1,"ldrc_1_004","1",1,1,"A_first"
"1294",13,41,41.02,0,0,"1",0.429674,0,0,1,"ldrc_1_004","1",1,1,"A_first"
"1295",14,43,43.02,0,0,"4",0.28981,0,0,0,"ldrc_1_004","1",1,1,"A_first"
"1296",15,46,46,0,0,"1",0.519469,0,0,1,"ldrc_1_004","1",1,1,"A_first"
"1297",16,48,48,1,1,"4",0.534664,0,0,1,"ldrc_1_004","1",1,1,"A_first"
"1298",17,51,51,1,1,"4",0.547564,0,0,1,"ldrc_1_004","1",1,1,"A_first"
"1299",18,56,56.01,3,1,"0",0,1,0.1,4,"ldrc_1_004","1",1,1,"A_first"
"1300",19,58,58.01,3,1,"0",0,1,0.15,4,"ldrc_1_004","1",1,1,"A_first"
"1301",20,61,61.01,0,0,"1",0.573734,0,0,1,"ldrc_1_004","1",1,1,"A_first"
"1302",21,63,63.01,3,1,"4",0.407081,1,0.2,3,"ldrc_1_004","1",1,1,"A_first"
"1303",22,66,66.01,1,1,"4",0.479803,0,0,1,"ldrc_1_004","1",1,1,"A_first"
"1304",23,69,69.01,1,1,"4",0.51573,0,0,1,"ldrc_1_004","1",1,1,"A_first"
"1305",24,71,71.01,0,0,"1",0.52285,0,0,1,"ldrc_1_004","1",1,1,"A_first"
"1306",25,73,73.01,0,0,"1",0.625133,0,0,1,"ldrc_1_004","1",1,1,"A_first"
"1307",26,75,75.01,0,0,"1",0.661221,0,0,1,"ldrc_1_004","1",1,1,"A_first"
"1308",27,77,77.01,1,1,"4",0.508686,0,0,1,"ldrc_1_004","1",1,1,"A_first"
"1309",28,79,79.02,1,1,"4",0.45585,0,0,1,"ldrc_1_004","1",1,1,"A_first"
"1310",29,81,81.02,1,1,"4",0.526129,0,0,1,"ldrc_1_004","1",1,1,"A_first"
"1311",30,83,83.02,0,0,"1",0.584415,0,0,1,"ldrc_1_004","1",1,1,"A_first"
"1312",31,86,86.02,2,0,"0",0,1,0.15,4,"ldrc_1_004","1",1,1,"A_first"
"1313",32,88,88,2,0,"0",0,1,0.2,4,"ldrc_1_004","1",1,1,"A_first"
"1314",33,90,90,3,1,"4",0.478334,1,0.25,3,"ldrc_1_004","1",1,1,"A_first"
"1315",34,93,93,1,1,"4",0.709385,0,0,1,"ldrc_1_004","1",1,1,"A_first"
"1316",35,95,95.01,1,1,"4",0.49447,0,0,1,"ldrc_1_004","1",1,1,"A_first"
"1317",36,97,97.01,1,1,"4",0.550703,0,0,1,"ldrc_1_004","1",1,1,"A_first"
"1318",37,100,100.01,0,0,"1",0.503561,0,0,1,"ldrc_1_004","1",1,1,"A_first"
"1319",38,103,103.01,0,0,"1",0.547278,0,0,1,"ldrc_1_004","1",1,1,"A_first"
"1320",39,105,105.01,0,0,"1",0.565456,0,0,1,"ldrc_1_004","1",1,1,"A_first"
"1321",40,108,108.01,0,0,"1",0.670528,0,0,1,"ldrc_1_004","1",1,1,"A_first"
"1322",41,110,110.01,0,0,"1",0.643473,0,0,1,"ldrc_1_004","1",1,1,"A_first"
"1323",42,112,112.01,2,0,"0",0,1,0.2,4,"ldrc_1_004","1",1,1,"A_first"
"1324",43,114,114.01,3,1,"0",0,1,0.25,4,"ldrc_1_004","1",1,1,"A_first"
"1325",44,116,116.01,3,1,"0",0,1,0.3,4,"ldrc_1_004","1",1,1,"A_first"
"1326",45,121,121.02,1,1,"1",0.837616,0,0,0,"ldrc_1_004","1",1,1,"A_first"
"1327",46,123,123.02,1,1,"4",0.576934,0,0,1,"ldrc_1_004","1",1,1,"A_first"
"1328",47,125,125.02,1,1,"4",0.631001,0,0,1,"ldrc_1_004","1",1,1,"A_first"
"1329",48,128,128,0,0,"1",0.6095,0,0,1,"ldrc_1_004","1",1,1,"A_first"
"1330",49,130,130,3,1,"4",0.687722,1,0.35,3,"ldrc_1_004","1",1,1,"A_first"
"1331",50,132,132,0,0,"1",0.992035,0,0,1,"ldrc_1_004","1",1,1,"A_first"
"1332",51,134,134,1,1,"4",0.464266,0,0,1,"ldrc_1_004","1",1,1,"A_first"
"1333",52,136,136.01,0,0,"1",0.609508,0,0,1,"ldrc_1_004","1",1,1,"A_first"
"1334",53,139,139.01,2,0,"0",0,1,0.3,4,"ldrc_1_004","1",1,1,"A_first"
"1335",54,144,144.01,0,0,"1",0.597402,0,0,1,"ldrc_1_004","1",1,1,"A_first"
"1336",55,147,147.01,0,0,"1",0.759233,0,0,1,"ldrc_1_004","1",1,1,"A_first"
"1337",56,149,149.01,1,1,"4",0.789497,0,0,1,"ldrc_1_004","1",1,1,"A_first"
"1338",57,153,153.01,1,1,"4",0.545109,0,0,1,"ldrc_1_004","1",1,1,"A_first"
"1339",58,155,155.01,0,0,"1",0.528121,0,0,1,"ldrc_1_004","1",1,1,"A_first"
"1340",59,157,157.01,3,1,"0",0,1,0.35,4,"ldrc_1_004","1",1,1,"A_first"
"1341",60,163,163.02,1,1,"4",0.644085,0,0,1,"ldrc_1_004","1",1,1,"A_first"
"1342",61,165,165.02,0,0,"1",0.589384,0,0,1,"ldrc_1_004","1",1,1,"A_first"
"1343",62,167,167,0,0,"1",0.751172,0,0,1,"ldrc_1_004","1",1,1,"A_first"
"1344",63,169,169,1,1,"4",0.597472,0,0,1,"ldrc_1_004","1",1,1,"A_first"
"1345",64,174,174,0,0,"1",0.715479,0,0,1,"ldrc_1_004","1",1,1,"A_first"
"1346",65,177,177.01,0,0,"1",0.618466,0,0,1,"ldrc_1_004","1",1,1,"A_first"
"1347",66,179,179.01,1,1,"4",0.511737,0,0,1,"ldrc_1_004","1",1,1,"A_first"
"1348",67,181,181.01,0,0,"1",0.588994,0,0,1,"ldrc_1_004","1",1,1,"A_first"
"1349",68,183,183.01,1,1,"4",0.707355,0,0,1,"ldrc_1_004","1",1,1,"A_first"
"1350",69,186,186.01,3,1,"0",0,1,0.4,4,"ldrc_1_004","1",1,1,"A_first"
"1351",70,188,188.01,3,1,"0",0,1,0.45,4,"ldrc_1_004","1",1,1,"A_first"
"1352",71,192,192.01,0,0,"1",0.483548,0,0,1,"ldrc_1_004","1",1,1,"A_first"
"1353",72,195,195.01,0,0,"1",0.883599,0,0,1,"ldrc_1_004","1",1,1,"A_first"
"1354",73,197,197.01,3,1,"4",0.699772,1,0.5,3,"ldrc_1_004","1",1,1,"A_first"
"1355",74,199,199.01,1,1,"4",0.749107,0,0,1,"ldrc_1_004","1",1,1,"A_first"
"1356",75,203,203.02,0,0,"1",0.828546,0,0,1,"ldrc_1_004","1",1,1,"A_first"
"1357",76,206,206.02,0,0,"1",0.691364,0,0,1,"ldrc_1_004","1",1,1,"A_first"
"1358",77,208,208.02,1,1,"4",0.670422,0,0,1,"ldrc_1_004","1",1,1,"A_first"
"1359",78,210,210,0,0,"1",0.593528,0,0,1,"ldrc_1_004","1",1,1,"A_first"
"1360",79,214,214,3,1,"4",0.638015,1,0.45,3,"ldrc_1_004","1",1,1,"A_first"
"1361",80,217,217.01,2,0,"1",0.774963,1,0.4,3,"ldrc_1_004","1",1,1,"A_first"
"1362",81,219,219.01,0,0,"1",0.773009,0,0,1,"ldrc_1_004","1",1,1,"A_first"
"1363",82,221,221.01,1,1,"4",0.634309,0,0,1,"ldrc_1_004","1",1,1,"A_first"
"1364",83,223,223.01,0,0,"1",0.572621,0,0,1,"ldrc_1_004","1",1,1,"A_first"
"1365",84,225,225.01,0,0,"1",0.566806,0,0,1,"ldrc_1_004","1",1,1,"A_first"
"1366",85,227,227.01,1,1,"4",0.657122,0,0,1,"ldrc_1_004","1",1,1,"A_first"
"1367",86,230,230.01,1,1,"4",0.540909,0,0,1,"ldrc_1_004","1",1,1,"A_first"
"1368",87,232,232.01,1,1,"4",0.715203,0,0,1,"ldrc_1_004","1",1,1,"A_first"
"1369",88,234,234.01,0,0,"1",0.673395,0,0,1,"ldrc_1_004","1",1,1,"A_first"
"1370",89,238,238.01,0,0,"1",0.68082,0,0,1,"ldrc_1_004","1",1,1,"A_first"
"1371",90,240,240.01,0,0,"1",0.697091,0,0,1,"ldrc_1_004","1",1,1,"A_first"
"1372",91,242,242.02,0,0,"1",0.627353,0,0,1,"ldrc_1_004","1",1,1,"A_first"
"1373",92,249,249.02,1,1,"4",0.646729,0,0,1,"ldrc_1_004","1",1,1,"A_first"
"1374",93,253,253,1,1,"4",0.672752,0,0,1,"ldrc_1_004","1",1,1,"A_first"
"1375",94,257,257,2,0,"1",0.695261,1,0.35,3,"ldrc_1_004","1",1,1,"A_first"
"1376",95,259,259.01,3,1,"4",0.487526,1,0.3,3,"ldrc_1_004","1",1,1,"A_first"
"1377",96,261,261.01,2,0,"0",0,1,0.25,4,"ldrc_1_004","1",1,1,"A_first"
