"TrialNum","Onset","TrueOns","Cond","Sentence","Resp","RT","correct","subind","runnum","cond_type","first","correct_first","group_num"
0,0,0.03,2,"A fence walked to the mother.","nonsense",3.49229097366,1,"0_009","1","active_ns",0,0,1
1,10.72,10.74,3,"The shirt was stained by mud.","sense",5.71239614487,1,"0_009","1","passive_s",1,1,1
2,21.39,21.41,4,"Fire was licked by a banana.","nonsense",3.54347896576,1,"0_009","1","passive_ns",1,1,1
3,38.56,38.57,1,"The banker counted the money.","sense",2.54493284225,1,"0_009","1","active_s",1,1,1
4,54.45,54.46,4,"Pie was raised by the letter.","nonsense",4.43052697182,1,"0_009","1","passive_ns",1,1,1
5,64.83,64.84,1,"The boy cleared off the table.","sense",2.70104789734,1,"0_009","1","active_s",1,1,1
6,80.32,80.33,4,"A rope was sold by the frog.","nonsense",3.67592787743,1,"0_009","1","passive_ns",1,1,1
7,90.96,90.97,2,"The snake asked for the father.","nonsense",5.52585411072,1,"0_009","1","active_ns",1,1,1
8,106.1,106.11,2,"A basement won the family.","sense",6.37172794342,0,"0_009","1","active_ns",1,0,1
9,116.71,116.72,1,"A tiger scared the zebra.","sense",2.51631903648,1,"0_009","1","active_s",1,1,1
10,131.58,131.59,1,"A bird dropped the worm.","sense",3.58711910248,1,"0_009","1","active_s",1,1,1
11,143.41,143.43,4,"The girl was told by a fork.","nonsense",4.86519002914,1,"0_009","1","passive_ns",1,1,1
12,154.13,154.15,4,"Bread was scratched by a tray.","nonsense",5.07641911507,1,"0_009","1","passive_ns",1,1,1
13,164.48,164.48,3,"The lamp was bought by the sister.",NA,NA,4,"0_009","1","passive_s",1,0,1
14,182.42,182.43,1,"The uncle put sugar in the tea.","sense",7.01002001762,1,"0_009","1","active_s",1,1,1
15,193.7,193.71,2,"A hen carried the dancer.","nonsense",4.18725800514,1,"0_009","1","active_ns",1,1,1
16,206.11,206.12,4,"A chair was tasted by a frame.","nonsense",4.16658091545,1,"0_009","1","passive_ns",1,1,1
17,223.68,223.69,3,"The show was seen by a child.","sense",5.92426991463,1,"0_009","1","passive_s",1,1,1
18,234.74,234.75,3,"Soup was served by a woman.","sense",5.8121111393,1,"0_009","1","passive_s",1,1,1
19,250.08,250.09,2,"The iron borrowed a teacher.","nonsense",3.6659579277,1,"0_009","1","active_ns",1,1,1
20,260.45,260.46,3,"A cat was saved by a king.","sense",5.51409983635,1,"0_009","1","passive_s",1,1,1
21,270.85,270.86,1,"The queen planted a flower.","sense",3.43304991722,1,"0_009","1","active_s",1,1,1
22,280.9,280.92,3,"A rug was rolled by the actor.","nonsense",5.60632395744,0,"0_009","1","passive_s",1,0,1
23,293.63,293.64,2,"The couch sang to the duck.","nonsense",3.62780189514,1,"0_009","1","active_ns",1,1,1
24,304.11,304.13,4,"Pasta was waved by a fish.","nonsense",3.66849112511,1,"0_009","1","passive_ns",1,1,1
25,314.89,314.9,1,"A mouse chewed on the cheese.","sense",4.22380590439,1,"0_009","1","active_s",1,1,1
26,325.02,325.03,3,"A phone was used by a doctor.","sense",3.0033929348,1,"0_009","1","passive_s",1,1,1
27,339.56,339.57,2,"The ear dressed a student.","nonsense",5.04358816147,1,"0_009","1","active_ns",1,1,1
28,350.98,350.99,1,"A fly entered the house.","sense",3.11172294617,1,"0_009","1","active_s",1,1,1
29,368.12,368.14,4,"A cup was cut by the pillow.","nonsense",4.94172000885,1,"0_009","1","passive_ns",1,1,1
30,380.08,380.09,3,"Pizza was cooked by the man.",NA,NA,4,"0_009","1","passive_s",1,0,1
31,395.78,395.8,2,"A joke hugged the dragon.","nonsense",4.06914615631,1,"0_009","1","active_ns",1,1,1
0,0,0.03,1,"A cousin wanted a pillow.","sense",2.18716812134,1,"0_009","2","active_s",1,1,1
1,10.16,10.17,2,"The woman scared the paper.","nonsense",3.30098891258,1,"0_009","2","active_ns",1,1,1
2,25.97,25.98,3,"A home was entered by the men.","sense",4.25006484985,1,"0_009","2","passive_s",1,1,1
3,40.97,40.98,3,"The plum was tasted by a bear.","nonsense",3.34008789062,0,"0_009","2","passive_s",1,0,1
4,53.69,53.71,2,"The barn barked at the driver.","nonsense",6.23376512527,1,"0_009","2","active_ns",1,1,1
5,64.57,64.58,3,"A song was sung by the cowboy.","sense",5.22006201744,1,"0_009","2","passive_s",1,1,1
6,75.24,75.25,4,"A chicken was asked by a bell.","nonsense",3.21740293503,1,"0_009","2","passive_ns",1,1,1
7,86.91,86.92,1,"The actress watched a show.","sense",4.40409588814,1,"0_009","2","active_s",1,1,1
8,103.03,103.04,2,"The key opened the carrot.","nonsense",4.61136102676,1,"0_009","2","active_ns",1,1,1
9,118.89,118.9,4,"Pizza was used by a book.","nonsense",4.9883389473,1,"0_009","2","passive_ns",1,1,1
10,128.92,128.94,1,"A raccoon scratched at the box.","nonsense",5.31397485733,0,"0_009","2","active_s",1,0,1
11,141.14,141.16,3,"The car was chased by a dog.","sense",3.94570398331,1,"0_009","2","passive_s",1,1,1
12,151.22,151.23,3,"A rope was pulled by the ape.","nonsense",5.73440504074,0,"0_009","2","passive_s",1,0,1
13,161.68,161.68,4,"A horse was peeled by salt.","nonsense",5.37721681595,1,"0_009","2","passive_ns",1,1,1
14,172.84,172.85,2,"A boat raced in the library.","nonsense",6.20813322067,1,"0_009","2","active_ns",1,1,1
15,183.02,183.03,3,"The movie was played by dad.","sense",4.50986099243,1,"0_009","2","passive_s",1,1,1
16,195.2,195.21,4,"The soup was caught by a ring.","nonsense",4.57489895821,1,"0_009","2","passive_ns",1,1,1
17,212.76,212.77,2,"The sock listened to the pig.","nonsense",4.4200630188,1,"0_009","2","active_ns",1,1,1
18,223.41,223.43,1,"A clown let go of a balloon.","sense",6.99597501755,1,"0_009","2","active_s",1,1,1
19,237.03,237.05,4,"The boy was owned by a lamp.","nonsense",5.887155056,1,"0_009","2","passive_ns",1,1,1
20,248.04,248.05,1,"A falcon grabbed the egg.","nonsense",5.21588587761,0,"0_009","2","active_s",1,0,1
21,258.46,258.47,3,"The test was read by a teacher.","sense",4.86623716354,1,"0_009","2","passive_s",1,1,1
22,274.9,274.91,1,"The mother carried a cake.","sense",4.8164639473,1,"0_009","2","active_s",1,1,1
23,289.51,289.52,4,"A table was planted by a kid.","nonsense",4.27092909813,1,"0_009","2","passive_ns",1,1,1
24,303.52,303.53,2,"The flag roared at a flower.","nonsense",7.0176680088,1,"0_009","2","active_ns",1,1,1
25,319.75,319.77,1,"A girl kicked the ball.","sense",3.15111088753,1,"0_009","2","active_s",1,1,1
26,329.89,329.9,1,"The baker stirred the spoon.","nonsense",5.88718414307,0,"0_009","2","active_s",1,0,1
27,343.4,343.41,4,"The door was eaten by a pot.","nonsense",3.5036740303,1,"0_009","2","passive_ns",1,1,1
28,353.98,354,2,"A goat graded the mirror.","nonsense",4.73923611641,1,"0_009","2","active_ns",1,1,1
29,370.82,370.84,3,"Seed was pecked by a hen.","sense",7.7398660183,1,"0_009","2","passive_s",1,1,1
30,382.44,382.46,4,"A king was chewed by a tree.","nonsense",3.8424050808,1,"0_009","2","passive_ns",1,1,1
31,392.48,392.5,2,"The banana lost the worm.","nonsense",4.05415487289,1,"0_009","2","active_ns",1,1,1
0,0,0.03,4,"A test was cooked by a bat.","nonsense",4.42282319069,1,"0_013","1","passive_ns",1,1,1
1,10.89,10.91,2,"The broom grabbed the queen.","nonsense",5.22400307655,1,"0_013","1","active_ns",1,1,1
2,21.08,21.09,3,"The shot was given by a nurse.","sense",5.26478600502,1,"0_013","1","passive_s",1,1,1
3,36.88,36.9,2,"A shirt chopped at the tray.","nonsense",3.62478899956,1,"0_013","1","active_ns",1,1,1
4,50.82,50.84,1,"The lion roared at the meat.","nonsense",4.56210708618,0,"0_013","1","active_s",1,0,1
5,61.13,61.14,4,"The mirror was read by a car.","nonsense",6.90633487701,1,"0_013","1","passive_ns",1,1,1
6,75.94,75.95,3,"The grass was moved by wind.","sense",3.73957300186,1,"0_013","1","passive_s",1,1,1
7,87.72,87.74,3,"A hand was licked by a puppy.","sense",5.98682117462,1,"0_013","1","passive_s",1,1,1
8,99.72,99.72,4,"A song was picked by a cat.","nonsense",5.08877420425,1,"0_013","1","passive_ns",1,1,1
9,111.38,111.4,4,"The dog was raised by a spoon.","nonsense",3.9495370388,1,"0_013","1","passive_ns",1,1,1
10,122.22,122.23,1,"The worker built the barn.","sense",6.43222308159,1,"0_013","1","active_s",1,1,1
11,134.13,134.14,2,"The table climbed on a brother.","nonsense",4.63672018051,1,"0_013","1","active_ns",1,1,1
12,146.54,146.54,2,"A game owned the doctor.","nonsense",4.58188009262,1,"0_013","1","active_ns",1,1,1
13,158.49,158.5,3,"Tea was stirred by the aunt.","sense",5.82851004601,1,"0_013","1","passive_s",1,1,1
14,169.83,169.84,1,"The chicken ate some seed.","sense",3.0996389389,1,"0_013","1","active_s",1,1,1
15,179.98,179.99,1,"A woman bought a pizza.","sense",3.0928170681,1,"0_013","1","active_s",1,1,1
16,190.27,190.28,2,"The actress chased the sugar.","nonsense",4.48362803459,1,"0_013","1","active_ns",1,1,1
17,200.64,200.65,3,"A worm was dropped by the bird.","nonsense",3.42082715034,0,"0_013","1","passive_s",1,0,1
18,215.75,215.76,1,"The father played the movie.","sense",3.50798296928,1,"0_013","1","active_s",1,1,1
19,225.84,225.84,3,"A gift was opened by a boy.","sense",3.82488489151,1,"0_013","1","passive_s",1,1,1
20,235.87,235.88,1,"The sheep escaped from the wolf.","sense",4.99685001373,1,"0_013","1","active_s",1,1,1
21,247.77,247.79,2,"The pillow jumped at a bear.","nonsense",5.01011490822,1,"0_013","1","active_ns",1,1,1
22,257.97,257.97,3,"A pig was scared by a fox.","sense",5.42708206177,1,"0_013","1","passive_s",1,1,1
23,268.09,268.09,3,"A wall was marked with paint.","sense",6.35741400719,1,"0_013","1","passive_s",1,1,1
24,280.16,280.17,1,"The cattle listened to the bell.","sense",7.56732201576,1,"0_013","1","active_s",1,1,1
25,296.87,296.89,4,"The phone was boiled by a rat.","nonsense",4.71610212326,1,"0_013","1","passive_ns",1,1,1
26,312.85,312.86,2,"A ring prepared for a potato.","nonsense",7.74053192139,1,"0_013","1","active_ns",1,1,1
27,330.61,330.62,4,"Mud was dressed by air.","nonsense",4.93859410286,1,"0_013","1","passive_ns",1,1,1
28,343.48,343.49,1,"The baby rolled in the crib.","sense",3.10002017021,1,"0_013","1","active_s",1,1,1
29,360.32,360.33,4,"Dirt was borrowed by the chalk.","nonsense",6.51129698753,1,"0_013","1","passive_ns",1,1,1
30,370.6,370.62,2,"A plate stained a kitten.",NA,NA,4,"0_013","1","active_ns",1,0,1
31,381.02,381.02,4,"The hill was addressed by soap.","nonsense",5.18500804901,1,"0_013","1","passive_ns",1,1,1
0,0,0.03,1,"The child peeled the banana.","nonsense",3.59366202354,0,"0_013","2","active_s",1,0,1
1,10.16,10.17,2,"The store cooked on the grass.","nonsense",3.54664206505,1,"0_013","2","active_ns",1,1,1
2,25.97,25.98,3,"Pie was made by a cousin.","sense",4.87942290306,1,"0_013","2","passive_s",1,1,1
3,40.97,40.98,3,"A fence was jumped by a horse.","sense",6.14373207092,1,"0_013","2","passive_s",1,1,1
4,53.69,53.71,2,"The rabbit bought the worker.","nonsense",3.28615903854,1,"0_013","2","active_ns",1,1,1
5,64.57,64.58,3,"A joke was told by the queen.","sense",5.23651599884,1,"0_013","2","passive_s",1,1,1
6,75.24,75.25,4,"The woman was pulled by a nut.","sense",5.20866107941,0,"0_013","2","passive_ns",1,0,1
7,86.91,86.92,1,"A mom addressed the letter.","sense",3.86827516556,1,"0_013","2","active_s",1,1,1
8,103.03,103.04,2,"The soup hired a cowboy.","nonsense",4.16968297958,1,"0_013","2","active_ns",1,1,1
9,118.89,118.9,4,"Iron was chased by the bee.","sense",5.28048801422,0,"0_013","2","passive_ns",1,0,1
10,128.92,128.94,1,"The bear tasted the apple.","nonsense",5.32439899445,0,"0_013","2","active_s",1,0,1
11,141.14,141.16,3,"The ring was owned by a dancer.","nonsense",6.73715019226,0,"0_013","2","passive_s",1,0,1
12,151.22,151.23,3,"The book was read by a friend.","sense",5.7586350441,1,"0_013","2","passive_s",1,1,1
13,161.68,161.68,4,"Sugar was moved by the sock.","sense",5.68170714378,0,"0_013","2","passive_ns",1,0,1
14,172.84,172.85,2,"A chicken shopped at a movie.","nonsense",5.48067116737,1,"0_013","2","active_ns",1,1,1
15,183.02,183.03,3,"Clay was rolled by the artist.","sense",7.92416715622,1,"0_013","2","passive_s",1,1,1
16,195.2,195.21,4,"A ball was prepared by glass.","nonsense",3.4961400032,1,"0_013","2","passive_ns",1,1,1
17,212.76,212.77,2,"The money counted the singer.","nonsense",4.19352912903,1,"0_013","2","active_ns",1,1,1
18,223.41,223.43,1,"A nurse helped a student.","sense",4.38434505463,1,"0_013","2","active_s",1,1,1
19,237.03,237.05,4,"A wolf was found by a fan.","nonsense",4.89950203896,1,"0_013","2","passive_ns",1,1,1
20,248.04,248.05,1,"The aunt walked on the boat.","sense",5.40430402756,1,"0_013","2","active_s",1,1,1
21,258.46,258.47,3,"Meat was eaten by a lion.","sense",7.82369995117,1,"0_013","2","passive_s",1,1,1
22,274.9,274.91,1,"A driver honked at the walker.","nonsense",5.43601703644,0,"0_013","2","active_s",1,0,1
23,289.51,289.52,4,"The mouse was graded by a flag.","nonsense",4.61529707909,1,"0_013","2","passive_ns",1,1,1
24,303.52,303.53,2,"The puppy scored a dress.","nonsense",4.80496692657,1,"0_013","2","active_ns",1,1,1
25,319.75,319.77,1,"A tree was planted in dirt.","sense",4.70463895798,1,"0_013","2","active_s",1,1,1
26,329.89,329.9,1,"A family baked some bread.","sense",3.43934011459,1,"0_013","2","active_s",1,1,1
27,343.4,343.41,4,"The mat was raced by a fox.","nonsense",5.97524905205,1,"0_013","2","passive_ns",1,1,1
28,353.98,354,2,"A candle sold the question.","nonsense",4.64999890327,1,"0_013","2","active_ns",1,1,1
29,370.82,370.84,3,"The spoon was waved by a cook.","sense",6.33708715439,1,"0_013","2","passive_s",1,1,1
30,382.44,382.46,4,"A card was scared by a baby.",NA,NA,4,"0_013","2","passive_ns",1,0,1
31,392.48,392.5,2,"The fork called to a sister.",NA,NA,4,"0_013","2","active_ns",1,0,1
0,0,0.03,2,"The house chewed on the phone.","nonsense",3.61535191536,1,"0_013","3","active_ns",1,1,1
1,10.72,10.74,3,"The door was shut by wind.","sense",2.64405012131,1,"0_013","3","passive_s",1,1,1
2,21.39,21.41,4,"A father was spotted by the egg.","sense",5.65161395073,0,"0_013","3","passive_ns",1,0,1
3,38.56,38.57,1,"The clerk asked a question.","nonsense",4.8249309063,0,"0_013","3","active_s",1,0,1
4,54.45,54.46,4,"The actor was kicked by cake.","nonsense",6.58565402031,1,"0_013","3","passive_ns",1,1,1
5,64.83,64.84,1,"A king wished for a horse.","nonsense",7.60428595543,0,"0_013","3","active_s",1,0,1
6,80.32,80.33,4,"The bird was told by the boat.","nonsense",3.68397212029,1,"0_013","3","passive_ns",1,1,1
7,90.96,90.97,2,"A rope listened to the salt.","nonsense",5.59388709068,1,"0_013","3","active_ns",1,1,1
8,106.1,106.11,2,"The tiger played a letter.","nonsense",3.11243915558,1,"0_013","3","active_ns",1,1,1
9,116.71,116.72,1,"The mother shopped at the store.","sense",6.12844085693,1,"0_013","3","active_s",1,1,1
10,131.58,131.59,1,"A sister hugged the dancer.","sense",4.25018191338,1,"0_013","3","active_s",1,1,1
11,143.41,143.43,4,"Meat was watched by an ear.","nonsense",4.78328609467,1,"0_013","3","passive_ns",1,1,1
12,154.13,154.15,4,"A worm was jumped by a dress.","nonsense",4.82645821571,1,"0_013","3","passive_ns",1,1,1
13,164.48,164.48,3,"Money was won by a team.","sense",4.22914409637,1,"0_013","3","passive_s",1,1,1
14,182.42,182.43,1,"The friend borrowed a book.","sense",4.32822299004,1,"0_013","3","active_s",1,1,1
15,193.7,193.71,2,"The lamp wrote to the nurse.","nonsense",5.05134296417,1,"0_013","3","active_ns",1,1,1
16,206.11,206.12,4,"A clown was bought by the hen.","nonsense",5.72272610664,1,"0_013","3","passive_ns",1,1,1
17,223.68,223.69,3,"The honey was made by a bee.","sense",4.18922591209,1,"0_013","3","passive_s",1,1,1
18,234.74,234.75,3,"Water was splashed by a bear.","sense",5.03902602196,1,"0_013","3","passive_s",1,1,1
19,250.08,250.09,2,"The seed raised a turtle.","sense",3.95272898674,0,"0_013","3","active_ns",1,0,1
20,260.45,260.46,3,"A barn was built by the uncle.","sense",5.91415095329,1,"0_013","3","passive_s",1,1,1
21,270.85,270.86,1,"The cowboy cooked some pasta.","sense",4.15626311302,1,"0_013","3","active_s",1,1,1
22,280.9,280.92,3,"A snake was caught by a girl.","sense",5.65849113464,1,"0_013","3","passive_s",1,1,1
23,293.63,293.64,2,"The soap tasted the monkey.","nonsense",5.98085594177,1,"0_013","3","active_ns",1,1,1
24,304.11,304.13,4,"A box was walked by a duck.","nonsense",3.72177290916,1,"0_013","3","passive_ns",1,1,1
25,314.89,314.9,1,"A brother opened the present.","sense",4.91955184937,1,"0_013","3","active_s",1,1,1
26,325.02,325.03,3,"Bread was picked by a boy.","nonsense",4.87465286255,0,"0_013","3","passive_s",1,0,1
27,339.56,339.57,2,"The zebra milked the show.","nonsense",4.10258793831,1,"0_013","3","active_ns",1,1,1
28,350.98,350.99,1,"The farmer owned a broom.","sense",4.57770395279,1,"0_013","3","active_s",1,1,1
29,368.12,368.14,4,"A queen was lost by a pen.","nonsense",3.96273112297,1,"0_013","3","passive_ns",1,1,1
30,380.08,380.09,3,"A hill was climbed by the bug.",NA,NA,4,"0_013","3","passive_s",1,0,1
31,395.78,395.8,2,"A pizza dropped the cousin.","nonsense",3.85816383362,1,"0_013","3","active_ns",1,1,1
0,0,0.03,4,"A test was cooked by a bat.","nonsense",3.74194121361,1,"0_025","1","passive_ns",1,1,1
0,0,0.03,4,"A test was cooked by a bat.","nonsense",5.38178014755,1,"0_025","1","passive_ns",0,0,1
1,10.89,10.91,2,"The broom grabbed the queen.","nonsense",3.00503492355,1,"0_025","1","active_ns",1,1,1
1,10.89,10.91,2,"The broom grabbed the queen.","nonsense",3.33693599701,1,"0_025","1","active_ns",0,0,1
1,10.89,10.91,2,"The broom grabbed the queen.","nonsense",3.65487289429,1,"0_025","1","active_ns",0,0,1
1,10.89,10.91,2,"The broom grabbed the queen.","nonsense",3.98101902008,1,"0_025","1","active_ns",0,0,1
1,10.89,10.91,2,"The broom grabbed the queen.","nonsense",4.30602383614,1,"0_025","1","active_ns",0,0,1
1,10.89,10.91,2,"The broom grabbed the queen.","nonsense",4.63196086884,1,"0_025","1","active_ns",0,0,1
1,10.89,10.91,2,"The broom grabbed the queen.","nonsense",4.95102500916,1,"0_025","1","active_ns",0,0,1
1,10.89,10.91,2,"The broom grabbed the queen.","nonsense",5.26892495155,1,"0_025","1","active_ns",0,0,1
2,21.08,21.09,3,"The shot was given by a nurse.","sense",2.59378910065,1,"0_025","1","passive_s",1,1,1
3,36.88,36.9,2,"A shirt chopped at the tray.","sense",5.94875311852,2,"0_025","1","active_ns",1,0,1
3,36.88,36.9,2,"A shirt chopped at the tray.","nonsense",6.10176110268,2,"0_025","1","active_ns",0,0,1
3,36.88,36.9,2,"A shirt chopped at the tray.","sense",6.92673516273,2,"0_025","1","active_ns",0,0,1
3,36.88,36.9,2,"A shirt chopped at the tray.","sense",7.16477108002,2,"0_025","1","active_ns",0,0,1
3,36.88,36.9,2,"A shirt chopped at the tray.","sense",7.45178103447,2,"0_025","1","active_ns",0,0,1
4,50.82,50.84,1,"The lion roared at the meat.","nonsense",2.55499386787,0,"0_025","1","active_s",1,0,1
4,50.82,50.84,1,"The lion roared at the meat.","nonsense",7.57909798622,0,"0_025","1","active_s",0,0,1
5,61.13,61.14,4,"The mirror was read by a car.","nonsense",3.66634893417,1,"0_025","1","passive_ns",1,1,1
6,75.94,75.95,3,"The grass was moved by wind.","nonsense",5.50343894958,2,"0_025","1","passive_s",1,0,1
6,75.94,75.95,3,"The grass was moved by wind.","sense",5.53830003738,2,"0_025","1","passive_s",0,0,1
7,87.72,87.74,3,"A hand was licked by a puppy.","sense",2.42645692825,1,"0_025","1","passive_s",1,1,1
8,99.72,99.73,4,"A song was picked by a cat.","sense",3.72852897644,2,"0_025","1","passive_ns",1,0,1
8,99.72,99.73,4,"A song was picked by a cat.","sense",4.5055129528,2,"0_025","1","passive_ns",0,0,1
8,99.72,99.73,4,"A song was picked by a cat.","nonsense",4.99157190323,2,"0_025","1","passive_ns",0,0,1
8,99.72,99.73,4,"A song was picked by a cat.","sense",5.1705520153,2,"0_025","1","passive_ns",0,0,1
8,99.72,99.73,4,"A song was picked by a cat.","sense",5.65650296211,2,"0_025","1","passive_ns",0,0,1
8,99.72,99.73,4,"A song was picked by a cat.","sense",5.84761095047,2,"0_025","1","passive_ns",0,0,1
9,111.38,111.4,4,"The dog was raised by a spoon.","sense",1.76966619492,2,"0_025","1","passive_ns",1,0,1
9,111.38,111.4,4,"The dog was raised by a spoon.","nonsense",2.08951807022,2,"0_025","1","passive_ns",0,0,1
9,111.38,111.4,4,"The dog was raised by a spoon.","nonsense",2.43160915375,2,"0_025","1","passive_ns",0,0,1
9,111.38,111.4,4,"The dog was raised by a spoon.","nonsense",2.67154812813,2,"0_025","1","passive_ns",0,0,1
9,111.38,111.4,4,"The dog was raised by a spoon.","nonsense",2.85653710365,2,"0_025","1","passive_ns",0,0,1
9,111.38,111.4,4,"The dog was raised by a spoon.","nonsense",3.04453396797,2,"0_025","1","passive_ns",0,0,1
9,111.38,111.4,4,"The dog was raised by a spoon.","nonsense",3.20726203918,2,"0_025","1","passive_ns",0,0,1
9,111.38,111.4,4,"The dog was raised by a spoon.","nonsense",3.35054898262,2,"0_025","1","passive_ns",0,0,1
10,122.22,122.23,1,"The worker built the barn.","sense",2.08501911163,1,"0_025","1","active_s",1,1,1
10,122.22,122.23,1,"The worker built the barn.","sense",4.24106907845,1,"0_025","1","active_s",0,0,1
11,134.13,134.14,2,"The table climbed on a brother.","nonsense",2.89844298363,1,"0_025","1","active_ns",1,1,1
12,146.54,146.54,2,"A game owned the doctor.","sense",4.42773509026,2,"0_025","1","active_ns",1,0,1
12,146.54,146.54,2,"A game owned the doctor.","nonsense",5.02278614044,2,"0_025","1","active_ns",0,0,1
12,146.54,146.54,2,"A game owned the doctor.","nonsense",5.27181005478,2,"0_025","1","active_ns",0,0,1
12,146.54,146.54,2,"A game owned the doctor.","nonsense",5.48678898811,2,"0_025","1","active_ns",0,0,1
12,146.54,146.54,2,"A game owned the doctor.","nonsense",5.6517739296,2,"0_025","1","active_ns",0,0,1
12,146.54,146.54,2,"A game owned the doctor.","nonsense",5.80174207687,2,"0_025","1","active_ns",0,0,1
12,146.54,146.54,2,"A game owned the doctor.","nonsense",5.98275208473,2,"0_025","1","active_ns",0,0,1
12,146.54,146.54,2,"A game owned the doctor.","nonsense",6.15273809433,2,"0_025","1","active_ns",0,0,1
13,158.49,158.5,3,"Tea was stirred by the aunt.","nonsense",4.58525705338,0,"0_025","1","passive_s",1,0,1
13,158.49,158.5,3,"Tea was stirred by the aunt.","nonsense",5.27926206589,0,"0_025","1","passive_s",0,0,1
14,169.83,169.84,1,"The chicken ate some seed.","sense",2.89168000221,1,"0_025","1","active_s",1,1,1
14,169.83,169.84,1,"The chicken ate some seed.","sense",6.5206489563,1,"0_025","1","active_s",0,0,1
15,179.98,179.99,1,"A woman bought a pizza.","sense",3.7416870594,1,"0_025","1","active_s",1,1,1
16,190.27,190.3,2,"The actress chased the sugar.","nonsense",4.2137389183,1,"0_025","1","active_ns",1,1,1
16,190.27,190.3,2,"The actress chased the sugar.","nonsense",5.55780291557,1,"0_025","1","active_ns",0,0,1
16,190.27,190.3,2,"The actress chased the sugar.","nonsense",5.86979484558,1,"0_025","1","active_ns",0,0,1
16,190.27,190.3,2,"The actress chased the sugar.","nonsense",6.15865087509,1,"0_025","1","active_ns",0,0,1
16,190.27,190.3,2,"The actress chased the sugar.","nonsense",6.47979307175,1,"0_025","1","active_ns",0,0,1
16,190.27,190.3,2,"The actress chased the sugar.","nonsense",6.77679204941,1,"0_025","1","active_ns",0,0,1
17,200.64,200.65,3,"A worm was dropped by the bird.","sense",6.13282799721,1,"0_025","1","passive_s",1,1,1
17,200.64,200.65,3,"A worm was dropped by the bird.","sense",7.86187314987,1,"0_025","1","passive_s",0,0,1
17,200.64,200.65,3,"A worm was dropped by the bird.","sense",8.14577507973,1,"0_025","1","passive_s",0,0,1
18,215.75,215.76,1,"The father played the movie.","sense",1.93288588524,1,"0_025","1","active_s",1,1,1
19,225.84,225.84,3,"A gift was opened by a boy.","nonsense",2.47056007385,2,"0_025","1","passive_s",1,0,1
19,225.84,225.84,3,"A gift was opened by a boy.","sense",2.73662900925,2,"0_025","1","passive_s",0,0,1
19,225.84,225.84,3,"A gift was opened by a boy.","sense",3.3676841259,2,"0_025","1","passive_s",0,0,1
19,225.84,225.84,3,"A gift was opened by a boy.","sense",3.56279802322,2,"0_025","1","passive_s",0,0,1
19,225.84,225.84,3,"A gift was opened by a boy.","sense",7.01090693474,2,"0_025","1","passive_s",0,0,1
20,235.87,235.88,1,"The sheep escaped from the wolf.","sense",2.40654087067,1,"0_025","1","active_s",1,1,1
20,235.87,235.88,1,"The sheep escaped from the wolf.","sense",3.60757803917,1,"0_025","1","active_s",0,0,1
21,247.77,247.79,2,"The pillow jumped at a bear.","nonsense",3.16497993469,1,"0_025","1","active_ns",1,1,1
21,247.77,247.79,2,"The pillow jumped at a bear.","nonsense",4.31600189209,1,"0_025","1","active_ns",0,0,1
21,247.77,247.79,2,"The pillow jumped at a bear.","nonsense",4.64004087448,1,"0_025","1","active_ns",0,0,1
21,247.77,247.79,2,"The pillow jumped at a bear.","nonsense",4.97607588768,1,"0_025","1","active_ns",0,0,1
21,247.77,247.79,2,"The pillow jumped at a bear.","nonsense",5.33606696129,1,"0_025","1","active_ns",0,0,1
21,247.77,247.79,2,"The pillow jumped at a bear.","nonsense",5.62604594231,1,"0_025","1","active_ns",0,0,1
21,247.77,247.79,2,"The pillow jumped at a bear.","nonsense",5.9710919857,1,"0_025","1","active_ns",0,0,1
21,247.77,247.79,2,"The pillow jumped at a bear.","nonsense",6.26799488068,1,"0_025","1","active_ns",0,0,1
21,247.77,247.79,2,"The pillow jumped at a bear.","nonsense",6.52808785439,1,"0_025","1","active_ns",0,0,1
22,257.97,257.99,3,"A pig was scared by a fox.","nonsense",3.55817604065,2,"0_025","1","passive_s",1,0,1
22,257.97,257.99,3,"A pig was scared by a fox.","sense",7.20838785172,2,"0_025","1","passive_s",0,0,1
22,257.97,257.99,3,"A pig was scared by a fox.","sense",7.42429304123,2,"0_025","1","passive_s",0,0,1
22,257.97,257.99,3,"A pig was scared by a fox.","sense",7.60928106308,2,"0_025","1","passive_s",0,0,1
22,257.97,257.99,3,"A pig was scared by a fox.","sense",8.72735786438,2,"0_025","1","passive_s",0,0,1
23,268.09,268.09,3,"A wall was marked with paint.","nonsense",2.91622281075,0,"0_025","1","passive_s",1,0,1
23,268.09,268.09,3,"A wall was marked with paint.","nonsense",4.33916401863,0,"0_025","1","passive_s",0,0,1
24,280.16,280.17,1,"The cattle listened to the bell.","nonsense",6.1991789341,0,"0_025","1","active_s",1,0,1
25,296.87,296.89,4,"The phone was boiled by a rat.","nonsense",3.78295898438,1,"0_025","1","passive_ns",1,1,1
25,296.87,296.89,4,"The phone was boiled by a rat.","nonsense",4.82904601097,1,"0_025","1","passive_ns",0,0,1
26,312.85,312.86,2,"A ring prepared for a potato.","nonsense",5.41926002502,1,"0_025","1","active_ns",1,1,1
26,312.85,312.86,2,"A ring prepared for a potato.","nonsense",5.89828515053,1,"0_025","1","active_ns",0,0,1
26,312.85,312.86,2,"A ring prepared for a potato.","nonsense",6.23533606529,1,"0_025","1","active_ns",0,0,1
26,312.85,312.86,2,"A ring prepared for a potato.","nonsense",6.48637509346,1,"0_025","1","active_ns",0,0,1
26,312.85,312.86,2,"A ring prepared for a potato.","nonsense",6.69928503036,1,"0_025","1","active_ns",0,0,1
26,312.85,312.86,2,"A ring prepared for a potato.","nonsense",6.88731408119,1,"0_025","1","active_ns",0,0,1
26,312.85,312.86,2,"A ring prepared for a potato.","nonsense",7.08134913445,1,"0_025","1","active_ns",0,0,1
27,330.61,330.62,4,"Mud was dressed by air.","nonsense",6.77645397186,1,"0_025","1","passive_ns",1,1,1
28,343.48,343.49,1,"The baby rolled in the crib.",NA,NA,4,"0_025","1","active_s",1,0,1
29,360.32,360.33,4,"Dirt was borrowed by the chalk.","nonsense",4.4801440239,1,"0_025","1","passive_ns",1,1,1
30,370.6,370.6,2,"A plate stained a kitten.","nonsense",3.0834710598,1,"0_025","1","active_ns",1,1,1
30,370.6,370.6,2,"A plate stained a kitten.","nonsense",7.85454082489,1,"0_025","1","active_ns",0,0,1
31,381.02,381.04,4,"The hill was addressed by soap.","nonsense",2.92823886871,1,"0_025","1","passive_ns",1,1,1
31,381.02,381.04,4,"The hill was addressed by soap.","nonsense",4.68926095963,1,"0_025","1","passive_ns",0,0,1
0,0,0.03,2,"The money counted the singer.",NA,NA,4,"1_001","1","active_ns",1,0,1
1,10.72,10.74,3,"Clay was rolled by the artist.","sense",3.63546705246,1,"1_001","1","passive_s",1,1,1
2,21.39,21.41,4,"The mat was raced by a fox.","nonsense",3.39470100403,1,"1_001","1","passive_ns",1,1,1
3,38.56,38.57,1,"The aunt walked on the boat.","nonsense",6.99911499023,0,"1_001","1","active_s",1,0,1
4,54.45,54.46,4,"A ball was prepared by glass.","nonsense",5.61978888512,1,"1_001","1","passive_ns",1,1,1
5,64.83,64.84,1,"A driver honked at the walker.","sense",6.08946704865,1,"1_001","1","active_s",1,1,1
6,80.32,80.33,4,"Iron was chased by the bee.","nonsense",7.35534214973,1,"1_001","1","passive_ns",1,1,1
7,90.96,90.97,2,"The rabbit bought the worker.","nonsense",4.79707980156,1,"1_001","1","active_ns",1,1,1
8,106.1,106.11,2,"A candle sold the question.","nonsense",5.78496313095,1,"1_001","1","active_ns",1,1,1
9,116.71,116.72,1,"A mom addressed the letter.","sense",4.38476204872,1,"1_001","1","active_s",1,1,1
10,131.58,131.59,1,"A family baked some bread.","nonsense",4.470307827,2,"1_001","1","active_s",1,0,1
10,131.58,131.59,1,"A family baked some bread.","sense",6.42537999153,2,"1_001","1","active_s",0,0,1
11,143.41,143.43,4,"The woman was pulled by a nut.","nonsense",5.66152906418,1,"1_001","1","passive_ns",1,1,1
12,154.13,154.15,4,"Sugar was moved by the sock.","nonsense",4.30673408508,1,"1_001","1","passive_ns",1,1,1
13,164.48,164.48,3,"The ring was owned by a dancer.","sense",7.38551902771,1,"1_001","1","passive_s",1,1,1
14,182.42,182.43,1,"The child peeled the banana.","sense",4.66222000122,1,"1_001","1","active_s",1,1,1
15,193.7,193.71,2,"The fork called to a sister.","nonsense",4.5826318264,1,"1_001","1","active_ns",1,1,1
16,206.11,206.12,4,"A card was scared by a baby.","nonsense",4.02682995796,1,"1_001","1","passive_ns",1,1,1
17,223.68,223.69,3,"A fence was jumped by a horse.","sense",5.93967700005,1,"1_001","1","passive_s",1,1,1
18,234.74,234.75,3,"Pie was made by a cousin.","nonsense",4.47628378868,2,"1_001","1","passive_s",1,0,1
18,234.74,234.75,3,"Pie was made by a cousin.","sense",6.79135489464,2,"1_001","1","passive_s",0,0,1
19,250.08,250.09,2,"The store cooked on the grass.","nonsense",4.90707302094,1,"1_001","1","active_ns",1,1,1
20,260.45,260.46,3,"The spoon was waved by a cook.","sense",5.71856689453,1,"1_001","1","passive_s",1,1,1
21,270.85,270.86,1,"A tree was planted in dirt.","sense",4.75072598457,1,"1_001","1","active_s",1,1,1
22,280.9,280.92,3,"A joke was told by the queen.","sense",4.15667796135,1,"1_001","1","passive_s",1,1,1
23,293.63,293.64,2,"The soup hired a cowboy.","nonsense",4.09828710556,1,"1_001","1","active_ns",1,1,1
24,304.11,304.13,4,"The mouse was graded by a flag.","nonsense",6.02590489388,1,"1_001","1","passive_ns",1,1,1
25,314.89,314.9,1,"The bear tasted the apple.","sense",5.91015696526,1,"1_001","1","active_s",1,1,1
26,325.02,325.03,3,"Meat was eaten by a lion.","sense",5.68287420273,1,"1_001","1","passive_s",1,1,1
27,339.56,339.57,2,"The puppy scored a dress.","nonsense",3.64398002625,1,"1_001","1","active_ns",1,1,1
28,350.98,350.99,1,"A nurse helped a student.","sense",4.81394290924,1,"1_001","1","active_s",1,1,1
29,368.12,368.13,4,"A wolf was found by a fan.","nonsense",6.08716702461,1,"1_001","1","passive_ns",1,1,1
30,380.08,380.09,3,"The book was read by a friend.","sense",4.26257586479,1,"1_001","1","passive_s",1,1,1
31,395.78,395.8,2,"A chicken shopped at a movie.",NA,NA,4,"1_001","1","active_ns",1,0,1
0,0,0.03,4,"A worm was jumped by a dress.","nonsense",3.62857413292,1,"1_001","2","passive_ns",1,1,1
1,10.89,10.91,2,"A pizza dropped the cousin.","nonsense",5.48180603981,1,"1_001","2","active_ns",1,1,1
2,21.08,21.09,3,"A hill was climbed by the bug.",NA,NA,4,"1_001","2","passive_s",1,0,1
3,36.88,36.9,2,"The zebra milked the show.","nonsense",4.65260386467,1,"1_001","2","active_ns",1,1,1
4,50.82,50.84,1,"The farmer owned a broom.","sense",3.30885601044,1,"1_001","2","active_s",1,1,1
5,61.13,61.14,4,"A queen was lost by a pen.","nonsense",6.20807409286,1,"1_001","2","passive_ns",1,1,1
6,75.94,75.95,3,"Bread was picked by a boy.","sense",4.78329205513,1,"1_001","2","passive_s",1,1,1
7,87.72,87.74,3,"A snake was caught by a girl.","nonsense",3.97639107704,0,"1_001","2","passive_s",1,0,1
8,99.72,99.72,4,"A box was walked by a duck.","nonsense",5.4105758667,1,"1_001","2","passive_ns",1,1,1
9,111.38,111.4,4,"Meat was watched by an ear.","nonsense",4.60158610344,1,"1_001","2","passive_ns",1,1,1
10,122.22,122.23,1,"A brother opened the present.","sense",4.63700318336,1,"1_001","2","active_s",1,1,1
11,134.13,134.14,2,"The soap tasted the monkey.","nonsense",5.33747720718,1,"1_001","2","active_ns",1,1,1
12,146.54,146.54,2,"The seed raised a turtle.","nonsense",4.84555196762,1,"1_001","2","active_ns",1,1,1
13,158.49,158.5,3,"A barn was built by the uncle.","nonsense",5.95233607292,0,"1_001","2","passive_s",1,0,1
14,169.83,169.84,1,"The cowboy cooked some pasta.","sense",3.91950011253,1,"1_001","2","active_s",1,1,1
15,179.98,179.99,1,"A sister hugged the dancer.","sense",3.25759410858,1,"1_001","2","active_s",1,1,1
16,190.27,190.28,2,"The tiger played a letter.","nonsense",5.01831293106,1,"1_001","2","active_ns",1,1,1
17,200.64,200.65,3,"Water was splashed by a bear.","sense",6.4117629528,1,"1_001","2","passive_s",1,1,1
18,215.75,215.76,1,"The friend borrowed a book.","sense",3.50587797165,1,"1_001","2","active_s",1,1,1
19,225.84,225.84,3,"The honey was made by a bee.","sense",4.19849705696,1,"1_001","2","passive_s",1,1,1
20,235.87,235.88,1,"The mother shopped at the store.","sense",4.55759882927,1,"1_001","2","active_s",1,1,1
21,247.77,247.79,2,"A rope listened to the salt.","nonsense",4.93800902367,1,"1_001","2","active_ns",1,1,1
22,257.97,257.97,3,"Money was won by a team.","nonsense",4.33182215691,0,"1_001","2","passive_s",1,0,1
23,268.09,268.09,3,"The door was shut by wind.","nonsense",5.2072930336,0,"1_001","2","passive_s",1,0,1
24,280.16,280.17,1,"A king wished for a horse.","sense",4.25197601318,1,"1_001","2","active_s",1,1,1
25,296.87,296.89,4,"A clown was bought by the hen.","nonsense",7.51402688026,1,"1_001","2","passive_ns",1,1,1
26,312.85,312.86,2,"The lamp wrote to the nurse.","nonsense",6.7392771244,1,"1_001","2","active_ns",1,1,1
27,330.61,330.62,4,"The actor was kicked by cake.","nonsense",5.51837992668,1,"1_001","2","passive_ns",1,1,1
28,343.48,343.49,1,"The clerk asked a question.","sense",7.64292311668,1,"1_001","2","active_s",1,1,1
29,360.32,360.33,4,"A father was spotted by the egg.","nonsense",7.32920908928,1,"1_001","2","passive_ns",1,1,1
30,370.6,370.6,2,"The house chewed on the phone.","nonsense",5.27852201462,1,"1_001","2","active_ns",1,1,1
31,381.02,381.02,4,"The bird was told by the boat.","nonsense",5.10157608986,1,"1_001","2","passive_ns",1,1,1
0,0,0.03,1,"A woman bought a pizza.","sense",3.05210113525,1,"1_001","3","active_s",1,1,1
1,10.16,10.17,2,"The pillow jumped at a bear.","nonsense",3.82411003113,1,"1_001","3","active_ns",1,1,1
2,25.97,25.98,3,"Tea was stirred by the aunt.","nonsense",4.04786276817,0,"1_001","3","passive_s",1,0,1
3,40.97,40.98,3,"A gift was opened by a boy.","sense",3.80330896378,1,"1_001","3","passive_s",1,1,1
4,53.69,53.71,2,"A game owned the doctor.","nonsense",3.86671090126,1,"1_001","3","active_ns",1,1,1
5,64.57,64.58,3,"A pig was scared by a fox.","sense",6.61786413193,1,"1_001","3","passive_s",1,1,1
6,75.24,75.25,4,"The dog was raised by a spoon.","nonsense",5.94732403755,1,"1_001","3","passive_ns",1,1,1
7,86.91,86.92,1,"The cattle listened to the bell.","sense",6.38806796074,1,"1_001","3","active_s",1,1,1
8,103.03,103.04,2,"A shirt chopped at the tray.","nonsense",5.01822900772,1,"1_001","3","active_ns",1,1,1
9,118.89,118.9,4,"A song was picked by a cat.","nonsense",3.0220079422,1,"1_001","3","passive_ns",1,1,1
10,128.92,128.94,1,"The baby rolled in the crib.","sense",3.68195796013,1,"1_001","3","active_s",1,1,1
11,141.14,141.16,3,"The grass was moved by wind.","sense",4.47855186462,1,"1_001","3","passive_s",1,1,1
12,151.22,151.23,3,"A card was marked with paint.",NA,NA,4,"1_001","3","passive_s",1,0,1
13,161.68,161.68,4,"A test was cooked by a bat.","nonsense",3.91027593613,1,"1_001","3","passive_ns",1,1,1
14,172.84,172.85,2,"The broom grabbed the queen.","nonsense",5.12217712402,1,"1_001","3","active_ns",1,1,1
15,183.02,183.03,3,"The shot was given by a nurse.","nonsense",5.13471102715,0,"1_001","3","passive_s",1,0,1
16,195.2,195.21,4,"The mirror was read by a car.","nonsense",4.7186870575,1,"1_001","3","passive_ns",1,1,1
17,212.76,212.77,2,"A plate stained a kitten.","nonsense",6.66289114952,1,"1_001","3","active_ns",1,1,1
18,223.41,223.43,1,"The lion roared at the meat.","sense",4.60486006737,1,"1_001","3","active_s",1,1,1
19,237.03,237.05,4,"Mud was dressed by air.","nonsense",4.14896702766,1,"1_001","3","passive_ns",1,1,1
20,248.04,248.05,1,"The father played the movie.","sense",3.41785216331,1,"1_001","3","active_s",1,1,1
21,258.46,258.47,3,"A hand was licked by a puppy.","sense",6.33115005493,1,"1_001","3","passive_s",1,1,1
22,274.9,274.91,1,"The worker built the barn.","sense",3.43358302116,1,"1_001","3","active_s",1,1,1
23,289.51,289.52,4,"The hill was addressed by soap.","nonsense",6.38501095772,1,"1_001","3","passive_ns",1,1,1
24,303.52,303.53,2,"A ring prepared for a potato.","nonsense",7.95575690269,1,"1_001","3","active_ns",1,1,1
25,319.75,319.77,1,"The chicken ate some seed.","sense",5.34007191658,1,"1_001","3","active_s",1,1,1
26,329.89,329.9,1,"The sheep escaped from the wolf.","sense",7.32691407204,1,"1_001","3","active_s",1,1,1
27,343.4,343.41,4,"Dirt was borrowed by the chalk.","nonsense",5.67572689056,1,"1_001","3","passive_ns",1,1,1
28,353.98,354,2,"The table climbed on a brother.","nonsense",3.7473089695,1,"1_001","3","active_ns",1,1,1
29,370.82,370.84,3,"A worm was dropped by the bird.","sense",7.25873804092,1,"1_001","3","passive_s",1,1,1
30,382.44,382.46,4,"The phone was boiled by a rat.","nonsense",7.57152605057,1,"1_001","3","passive_ns",1,1,1
31,392.48,392.5,2,"The actress chased the sugar.","nonsense",7.31337404251,1,"1_001","3","active_ns",1,1,1
0,0,0.05,2,"A pillow scratched the fish.","nonsense",2.48956799507,1,"1_002","2","active_ns",1,1,1
0,0,0.05,2,"A pillow scratched the fish.","nonsense",7.27073693275,1,"1_002","2","active_ns",0,0,1
1,10.72,10.74,3,"A broom was sold by a farmer.","sense",3.9013569355,1,"1_002","2","passive_s",1,1,1
2,21.39,21.41,4,"The dragon was won by clay.","sense",6.98157215118,0,"1_002","2","passive_ns",1,0,1
3,38.56,38.58,1,"The monkey climbed a tree.",NA,NA,4,"1_002","2","active_s",1,0,1
4,54.45,54.47,4,"A man was scored by wind.","sense",6.092015028,0,"1_002","2","passive_ns",1,0,1
5,64.83,64.84,1,"The rabbit jumped in the grass.","sense",2.80120205879,1,"1_002","2","active_s",1,1,1
6,80.32,80.33,4,"A flower was milked by a bear.","nonsense",4.56008601189,1,"1_002","2","passive_ns",1,1,1
7,90.96,90.97,2,"A chicken shopped at a movie.","nonsense",5.95762491226,1,"1_002","2","active_ns",1,1,1
8,106.1,106.13,2,"The apple watched a king.","nonsense",4.27286696434,1,"1_002","2","active_ns",1,1,1
9,116.71,116.73,1,"The actor pulled on a rope.","sense",5.7827899456,1,"1_002","2","active_s",1,1,1
10,131.58,131.6,1,"A cowgirl caught a snake.","sense",6.78473186493,1,"1_002","2","active_s",1,1,1
11,143.41,143.43,4,"The bug was cooked by a key.","nonsense",4.63512206078,1,"1_002","2","passive_ns",1,1,1
12,154.13,154.15,4,"Seed was raised by the rug.","nonsense",6.19951796532,1,"1_002","2","passive_ns",1,1,1
13,164.48,164.5,3,"A box was cut by the worker.","sense",4.94477987289,1,"1_002","2","passive_s",1,1,1
14,182.42,182.44,1,"The doctor used the phone.","sense",3.4961669445,1,"1_002","2","active_s",1,1,1
15,193.7,193.71,2,"A piano planted a brother.","nonsense",4.82361793518,1,"1_002","2","active_ns",1,1,1
16,206.11,206.12,4,"The pig was hugged by a joke.","nonsense",7.6229019165,1,"1_002","2","passive_ns",1,1,1
17,223.68,223.69,3,"A cake was baked by mom.","sense",3.36423516273,1,"1_002","2","passive_s",1,1,1
18,234.74,234.76,3,"The egg was lost by the duck.","nonsense",5.81043696404,0,"1_002","2","passive_s",1,0,1
19,250.08,250.1,2,"A present picked the raccoon.","nonsense",6.05220508575,1,"1_002","2","active_ns",1,1,1
20,260.45,260.47,3,"A fork was found by the kid.","nonsense",3.24361991882,0,"1_002","2","passive_s",1,0,1
21,270.85,270.86,1,"The dog chased the car.","sense",2.85733580589,1,"1_002","2","active_s",1,1,1
22,280.9,280.92,3,"The sock was worn by a baby.","sense",3.44352388382,1,"1_002","2","passive_s",1,1,1
23,293.63,293.65,2,"The bucket told a horse.","nonsense",3.57524895668,1,"1_002","2","active_ns",1,1,1
24,304.11,304.13,4,"A couch was saved by a plum.","nonsense",3.99257779121,1,"1_002","2","passive_ns",1,1,1
25,314.89,314.91,1,"A teacher graded a paper.","sense",2.90201807022,1,"1_002","2","active_s",1,1,1
26,325.02,325.03,3,"The ball was kicked by a girl.","sense",2.81656503677,1,"1_002","2","passive_s",1,1,1
27,339.56,339.57,2,"The chalk wanted a child.","nonsense",4.05766892433,1,"1_002","2","active_ns",1,1,1
28,350.98,350.99,1,"A turtle crawled to the water.","sense",5.751693964,1,"1_002","2","active_s",1,1,1
29,368.12,368.14,4,"A hand was built by the ant.","nonsense",5.44089889526,1,"1_002","2","passive_ns",1,1,1
30,380.08,380.11,3,"Cheese was chewed by a rat.","sense",5.32959890366,1,"1_002","2","passive_s",1,1,1
31,395.78,395.8,2,"The bread heard a camel.","nonsense",3.26516819,1,"1_002","2","active_ns",1,1,1
0,0,0.05,1,"A bird dropped the worm.","sense",5.94579815865,1,"1_002","3","active_s",1,1,1
1,10.16,10.17,2,"The couch sang to the duck.","nonsense",6.03227996826,1,"1_002","3","active_ns",1,1,1
2,25.97,25.99,3,"The show was seen by a child.","sense",5.68471598625,1,"1_002","3","passive_s",1,1,1
3,40.97,40.98,3,"A rug was rolled by the actor.",NA,NA,4,"1_002","3","passive_s",1,0,1
4,53.69,53.71,2,"A hen carried the dancer.","nonsense",3.46497392654,1,"1_002","3","active_ns",1,1,1
5,64.57,64.59,3,"Pizza was cooked by the man.","sense",4.68749809265,1,"1_002","3","passive_s",1,1,1
6,75.24,75.26,4,"A chair was tasted by a frame.","nonsense",5.56373405457,1,"1_002","3","passive_ns",1,1,1
7,86.91,86.94,1,"The uncle put sugar in the tea.","sense",4.78866696358,1,"1_002","3","active_s",1,1,1
8,103.03,103.04,2,"A fence walked to the mother.","nonsense",4.32948708534,1,"1_002","3","active_ns",1,1,1
9,118.89,118.92,4,"Fire was licked by a banana.","nonsense",4.34769201279,1,"1_002","3","passive_ns",1,1,1
10,128.92,128.94,1,"A fly entered the house.","sense",5.50728988647,1,"1_002","3","active_s",1,1,1
11,141.14,141.16,3,"A cat was saved by a king.","nonsense",4.6049079895,2,"1_002","3","passive_s",1,0,1
11,141.14,141.16,3,"A cat was saved by a king.","sense",5.23485803604,2,"1_002","3","passive_s",0,0,1
11,141.14,141.16,3,"A cat was saved by a king.","sense",6.15493106842,2,"1_002","3","passive_s",0,0,1
12,151.22,151.23,3,"The shirt was stained by mud.","sense",4.08429193497,1,"1_002","3","passive_s",1,1,1
13,161.68,161.7,4,"Pasta was waved by a fish.","nonsense",6.18474984169,1,"1_002","3","passive_ns",1,1,1
14,172.84,172.85,2,"A joke hugged the dragon.","nonsense",3.09649205208,1,"1_002","3","active_ns",1,1,1
15,183.02,183.04,3,"A phone was used by a doctor.","sense",2.46123504639,1,"1_002","3","passive_s",1,1,1
15,183.02,183.04,3,"A phone was used by a doctor.","sense",6.49240207672,1,"1_002","3","passive_s",0,0,1
16,195.2,195.21,4,"A cup was cut by the pillow.","nonsense",5.24784302711,1,"1_002","3","passive_ns",1,1,1
17,212.76,212.79,2,"The snake asked for the father.","nonsense",5.56361794472,1,"1_002","3","active_ns",1,1,1
18,223.41,223.43,1,"A mouse chewed on the cheese.","sense",5.51837396622,1,"1_002","3","active_s",1,1,1
19,237.03,237.05,4,"Pie was raised by the letter.","nonsense",4.26340198517,1,"1_002","3","passive_ns",1,1,1
20,248.04,248.05,1,"The banker counted the money.","sense",4.98405194283,1,"1_002","3","active_s",1,1,1
21,258.46,258.47,3,"The lamp was bought by the sister.","sense",4.36744713783,1,"1_002","3","passive_s",1,1,1
22,274.9,274.93,1,"The boy cleared off the table.","sense",3.12802004814,1,"1_002","3","active_s",1,1,1
23,289.51,289.54,4,"Bread was scratched by a tray.","nonsense",5.95858597755,1,"1_002","3","passive_ns",1,1,1
24,303.52,303.54,2,"The ear dressed a student.","sense",4.95713090897,2,"1_002","3","active_ns",1,0,1
24,303.52,303.54,2,"The ear dressed a student.","nonsense",5.68903708458,2,"1_002","3","active_ns",0,0,1
24,303.52,303.54,2,"The ear dressed a student.","nonsense",6.55019712448,2,"1_002","3","active_ns",0,0,1
25,319.75,319.77,1,"The queen planted a flower.","sense",4.91238021851,1,"1_002","3","active_s",1,1,1
26,329.89,329.9,1,"A tiger scared the zebra.","sense",3.97217106819,1,"1_002","3","active_s",1,1,1
27,343.4,343.42,4,"A rope was sold by the frog.",NA,NA,4,"1_002","3","passive_ns",1,0,1
28,353.98,354,2,"The iron borrowed a teacher.","sense",4.59157705307,2,"1_002","3","active_ns",1,0,1
28,353.98,354,2,"The iron borrowed a teacher.","nonsense",5.00145792961,2,"1_002","3","active_ns",0,0,1
28,353.98,354,2,"The iron borrowed a teacher.","nonsense",5.67161083221,2,"1_002","3","active_ns",0,0,1
29,370.82,370.84,3,"Soup was served by a woman.","sense",3.8798251152,1,"1_002","3","passive_s",1,1,1
30,382.44,382.46,4,"The girl was told by a fork.","nonsense",4.18267512321,1,"1_002","3","passive_ns",1,1,1
31,392.48,392.5,2,"A basement won the family.",NA,NA,4,"1_002","3","active_ns",1,0,1
0,0,0.03,4,"The soup was caught by a ring.","nonsense",0.1137778759,3,"1_004","1","passive_ns",1,0,1
0,0,0.03,4,"The soup was caught by a ring.","nonsense",5.9198448658,3,"1_004","1","passive_ns",0,0,1
1,10.89,10.91,2,"A goat graded the mirror.","nonsense",5.19502902031,1,"1_004","1","active_ns",1,1,1
2,21.08,21.09,3,"The movie was played by dad.",NA,NA,4,"1_004","1","passive_s",1,0,1
3,36.88,36.9,2,"The barn barked at the driver.",NA,NA,4,"1_004","1","active_ns",1,0,1
4,50.82,50.84,1,"A clown let go of a balloon.","sense",6.75821995735,1,"1_004","1","active_s",1,1,1
5,61.13,61.14,4,"The boy was owned by a lamp.","nonsense",4.69588303566,1,"1_004","1","passive_ns",1,1,1
6,75.94,75.95,3,"The test was read by a teacher.","sense",5.12633180618,1,"1_004","1","passive_s",1,1,1
7,87.72,87.74,3,"Seed was pecked by a hen.","sense",5.67869496346,1,"1_004","1","passive_s",1,1,1
8,99.72,99.72,4,"A table was planted by a kid.","sense",4.76678013802,0,"1_004","1","passive_ns",1,0,1
9,111.38,111.4,4,"A king was chewed by a tree.","nonsense",5.07044291496,1,"1_004","1","passive_ns",1,1,1
10,122.22,122.23,1,"A girl kicked the ball.","nonsense",5.42515301704,0,"1_004","1","active_s",1,0,1
11,134.13,134.14,2,"The woman scared the paper.","nonsense",4.00654697418,1,"1_004","1","active_ns",1,1,1
12,146.54,146.54,2,"The flag roared at a flower.","sense",6.22376704216,0,"1_004","1","active_ns",1,0,1
13,158.49,158.5,3,"A home was entered by the men.","sense",4.72043514252,1,"1_004","1","passive_s",1,1,1
14,169.83,169.84,1,"The actress watched a show.","nonsense",6.68467593193,0,"1_004","1","active_s",1,0,1
15,179.98,179.99,1,"A cousin wanted a pillow.","nonsense",7.97703289986,0,"1_004","1","active_s",1,0,1
16,190.27,190.28,2,"The banana lost the worm.","nonsense",7.19558691978,1,"1_004","1","active_ns",1,1,1
17,200.64,200.65,3,"The car was chased by a dog.","sense",7.81299996376,1,"1_004","1","passive_s",1,1,1
18,215.75,215.76,1,"The mother carried a cake.",NA,NA,4,"1_004","1","active_s",1,0,1
19,225.84,225.84,3,"A rope was pulled by the ape.","sense",6.53600287437,1,"1_004","1","passive_s",1,1,1
20,235.87,235.88,1,"A raccoon scratched at the box.","sense",5.23153614998,1,"1_004","1","active_s",1,1,1
21,247.77,247.79,2,"The sock listened to the pig.","nonsense",5.99336791039,1,"1_004","1","active_ns",1,1,1
22,257.97,257.97,3,"The plum was tasted by a bear.","sense",7.49109911919,1,"1_004","1","passive_s",1,1,1
23,268.09,268.09,3,"A song was sung by the cowboy.","sense",5.32249712944,1,"1_004","1","passive_s",1,1,1
24,280.16,280.17,1,"The baker stirred the spoon.","nonsense",6.17329406738,0,"1_004","1","active_s",1,0,1
25,296.87,296.89,4,"The door was eaten by a pot.","nonsense",4.23219895363,1,"1_004","1","passive_ns",1,1,1
26,312.85,312.86,2,"A boat raced in the library.","nonsense",6.40036511421,1,"1_004","1","active_ns",1,1,1
27,330.61,330.62,4,"Pizza was used by a book.","nonsense",7.40763092041,1,"1_004","1","passive_ns",1,1,1
28,343.48,343.49,1,"A falcon grabbed the egg.",NA,NA,4,"1_004","1","active_s",1,0,1
29,360.32,360.33,4,"A horse was peeled by salt.","nonsense",6.35128688812,1,"1_004","1","passive_ns",1,1,1
30,370.6,370.62,2,"The key opened the carrot.","nonsense",4.9421210289,1,"1_004","1","active_ns",1,1,1
31,381.02,381.02,4,"A chicken was asked by a bell.",NA,NA,4,"1_004","1","passive_ns",1,0,1
0,0,0.03,1,"A bird dropped the worm.","nonsense",2.21667408943,0,"1_004","2","active_s",1,0,1
1,10.16,10.17,2,"The couch sang to the duck.","nonsense",4.94361305237,1,"1_004","2","active_ns",1,1,1
2,25.97,25.98,3,"The show was seen by a child.","nonsense",7.44772219658,0,"1_004","2","passive_s",1,0,1
3,40.97,40.98,3,"A rug was rolled by the actor.","sense",7.69787597656,1,"1_004","2","passive_s",1,1,1
4,53.69,53.71,2,"A hen carried the dancer.","nonsense",5.63235521317,1,"1_004","2","active_ns",1,1,1
5,64.57,64.58,3,"Pizza was cooked by the man.","sense",5.47660708427,1,"1_004","2","passive_s",1,1,1
6,75.24,75.25,4,"A chair was tasted by a frame.","nonsense",7.94212007523,1,"1_004","2","passive_ns",1,1,1
7,86.91,86.92,1,"The uncle put sugar in the tea.","sense",6.20779204369,1,"1_004","2","active_s",1,1,1
8,103.03,103.04,2,"A fence walked to the mother.",NA,NA,4,"1_004","2","active_ns",1,0,1
9,118.89,118.9,4,"Fire was licked by a banana.","nonsense",5.72886610031,1,"1_004","2","passive_ns",1,1,1
10,128.92,128.94,1,"A fly entered the house.","sense",7.14861893654,1,"1_004","2","active_s",1,1,1
11,141.14,141.16,3,"A cat was saved by a king.","nonsense",6.83945298195,0,"1_004","2","passive_s",1,0,1
12,151.22,151.23,3,"The shirt was stained by mud.",NA,NA,4,"1_004","2","passive_s",1,0,1
13,161.68,161.68,4,"Pasta was waved by a fish.",NA,NA,4,"1_004","2","passive_ns",1,0,1
14,172.84,172.85,2,"A joke hugged the dragon.","nonsense",4.58197689056,1,"1_004","2","active_ns",1,1,1
15,183.02,183.03,3,"A phone was used by a doctor.",NA,NA,4,"1_004","2","passive_s",1,0,1
16,195.2,195.21,4,"A cup was cut by the pillow.","nonsense",6.49041008949,1,"1_004","2","passive_ns",1,1,1
17,212.76,212.77,2,"The snake asked for the father.","nonsense",6.0016310215,1,"1_004","2","active_ns",1,1,1
18,223.41,223.43,1,"A mouse chewed on the cheese.","sense",4.88948512077,1,"1_004","2","active_s",1,1,1
19,237.03,237.05,4,"Pie was raised by the letter.","nonsense",4.94576406479,1,"1_004","2","passive_ns",1,1,1
20,248.04,248.05,1,"The banker counted the money.","sense",5.67250704765,1,"1_004","2","active_s",1,1,1
21,258.46,258.47,3,"The lamp was bought by the sister.",NA,NA,4,"1_004","2","passive_s",1,0,1
22,274.9,274.91,1,"The boy cleared off the table.","sense",3.99614500999,1,"1_004","2","active_s",1,1,1
23,289.51,289.52,4,"Bread was scratched by a tray.","nonsense",5.16074490547,1,"1_004","2","passive_ns",1,1,1
24,303.52,303.53,2,"The ear dressed a student.","nonsense",6.45541501045,1,"1_004","2","active_ns",1,1,1
25,319.75,319.77,1,"The queen planted a flower.","sense",6.25376200676,1,"1_004","2","active_s",1,1,1
26,329.89,329.9,1,"A tiger scared the zebra.","sense",6.42555594444,1,"1_004","2","active_s",1,1,1
27,343.4,343.41,4,"A rope was sold by the frog.","nonsense",5.89537620544,1,"1_004","2","passive_ns",1,1,1
28,353.98,354,2,"The iron borrowed a teacher.","nonsense",6.86404395103,1,"1_004","2","active_ns",1,1,1
29,370.82,370.84,3,"Soup was served by a woman.","sense",5.89725804329,1,"1_004","2","passive_s",1,1,1
30,382.44,382.46,4,"The girl was told by a fork.",NA,NA,4,"1_004","2","passive_ns",1,0,1
31,392.48,392.5,2,"A basement won the family.","nonsense",0.520964860916,1,"1_004","2","active_ns",1,1,1
31,392.48,392.5,2,"A basement won the family.","nonsense",6.12810993195,1,"1_004","2","active_ns",0,0,1
0,0,0.03,2,"A pillow scratched the fish.","nonsense",3.86731791496,1,"1_004","3","active_ns",1,1,1
1,10.72,10.74,3,"A broom was sold by a farmer.","sense",5.32626509666,1,"1_004","3","passive_s",1,1,1
2,21.39,21.41,4,"The dragon was won by clay.","nonsense",5.48838114738,1,"1_004","3","passive_ns",1,1,1
3,38.56,38.57,1,"The monkey climbed a tree.","sense",3.37897586823,1,"1_004","3","active_s",1,1,1
4,54.45,54.46,4,"A man was scored by wind.",NA,NA,4,"1_004","3","passive_ns",1,0,1
5,64.83,64.84,1,"The rabbit jumped in the grass.","sense",4.97136998177,1,"1_004","3","active_s",1,1,1
5,64.83,64.84,1,"The rabbit jumped in the grass.","sense",6.60421586037,1,"1_004","3","active_s",0,0,1
6,80.32,80.33,4,"A flower was milked by a bear.",NA,NA,4,"1_004","3","passive_ns",1,0,1
7,90.96,90.97,2,"A chicken shopped at a movie.","nonsense",4.2724981308,1,"1_004","3","active_ns",1,1,1
8,106.1,106.11,2,"The apple watched a king.","nonsense",4.897605896,1,"1_004","3","active_ns",1,1,1
9,116.71,116.72,1,"The actor pulled on a rope.","sense",5.49445915222,1,"1_004","3","active_s",1,1,1
10,131.58,131.59,1,"A cowgirl caught a snake.",NA,NA,4,"1_004","3","active_s",1,0,1
11,143.41,143.43,4,"The bug was cooked by a key.","nonsense",7.76931285858,1,"1_004","3","passive_ns",1,1,1
12,154.13,154.15,4,"Seed was raised by the rug.","nonsense",7.26945114136,1,"1_004","3","passive_ns",1,1,1
13,164.48,164.48,3,"A box was cut by the worker.","sense",6.37917995453,1,"1_004","3","passive_s",1,1,1
14,182.42,182.43,1,"The doctor used the phone.","sense",4.80506896973,1,"1_004","3","active_s",1,1,1
15,193.7,193.71,2,"A piano planted a brother.","nonsense",7.19845294952,1,"1_004","3","active_ns",1,1,1
16,206.11,206.12,4,"The pig was hugged by a joke.","nonsense",5.92970895767,1,"1_004","3","passive_ns",1,1,1
17,223.68,223.69,3,"A cake was baked by mom.","sense",5.47328805923,1,"1_004","3","passive_s",1,1,1
18,234.74,234.75,3,"The egg was laid by the duck.","sense",5.72808003426,1,"1_004","3","passive_s",1,1,1
19,250.08,250.09,2,"A present picked the raccoon.","nonsense",7.11989092827,1,"1_004","3","active_ns",1,1,1
20,260.45,260.46,3,"A fork was found by the kid.",NA,NA,4,"1_004","3","passive_s",1,0,1
21,270.85,270.86,1,"The dog chased the car.","sense",5.54125905037,1,"1_004","3","active_s",1,1,1
22,280.9,280.92,3,"The sock was worn by a baby.","nonsense",6.35438108444,0,"1_004","3","passive_s",1,0,1
23,293.63,293.64,2,"The bucket told a horse.","nonsense",5.99077486992,1,"1_004","3","active_ns",1,1,1
24,304.11,304.13,4,"A couch was saved by a plum.",NA,NA,4,"1_004","3","passive_ns",1,0,1
25,314.89,314.9,1,"A teacher graded a paper.","sense",3.91377806664,1,"1_004","3","active_s",1,1,1
25,314.89,314.9,1,"A teacher graded a paper.","sense",7.82301712036,1,"1_004","3","active_s",0,0,1
26,325.02,325.03,3,"The ball was kicked by a girl.","sense",4.5724260807,1,"1_004","3","passive_s",1,1,1
27,339.56,339.57,2,"The chalk wanted a child.",NA,NA,4,"1_004","3","active_ns",1,0,1
28,350.98,350.99,1,"A turtle crawled to the water.","sense",6.07064604759,1,"1_004","3","active_s",1,1,1
29,368.12,368.14,4,"A hand was built by the ant.",NA,NA,4,"1_004","3","passive_ns",1,0,1
30,380.08,380.09,3,"Cheese was chewed by a rat.","sense",6.48319196701,1,"1_004","3","passive_s",1,1,1
31,395.78,395.8,2,"The bread heard a camel.","nonsense",4.3741850853,1,"1_004","3","active_ns",1,1,1
0,0,0.03,4,"A wolf was found by a fan.","nonsense",5.96913194656,1,"1_007","2","passive_ns",1,1,1
1,10.89,10.91,2,"A chicken shopped at a movie.","nonsense",3.37129092216,1,"1_007","2","active_ns",1,1,1
2,21.08,21.09,3,"The book was read by a friend.","sense",5.82226109505,1,"1_007","2","passive_s",1,1,1
3,36.88,36.9,2,"The puppy scored a dress.","nonsense",4.25608491898,1,"1_007","2","active_ns",1,1,1
4,50.82,50.84,1,"A nurse helped a student.","sense",3.64942383766,1,"1_007","2","active_s",1,1,1
5,61.13,61.14,4,"The mouse was graded by a flag.","nonsense",6.17047286034,1,"1_007","2","passive_ns",1,1,1
6,75.94,75.95,3,"Meat was eaten by a lion.","sense",4.81887292862,1,"1_007","2","passive_s",1,1,1
7,87.72,87.74,3,"The spoon was waved by a cook.","sense",6.60697603226,1,"1_007","2","passive_s",1,1,1
8,99.72,99.72,4,"A card was scared by a baby.","nonsense",6.1900370121,1,"1_007","2","passive_ns",1,1,1
9,111.38,111.4,4,"The mat was raced by a fox.","nonsense",6.88698911667,1,"1_007","2","passive_ns",1,1,1
10,122.22,122.23,1,"A tree was planted in dirt.","sense",7.24252820015,1,"1_007","2","active_s",1,1,1
11,134.13,134.14,2,"The soup hired a cowboy.","nonsense",4.11799907684,1,"1_007","2","active_ns",1,1,1
12,146.54,146.54,2,"The store cooked on the grass.","nonsense",6.74823379517,1,"1_007","2","active_ns",1,1,1
13,158.49,158.5,3,"A joke was told by the queen.","sense",4.04560089111,1,"1_007","2","passive_s",1,1,1
14,169.83,169.84,1,"The bear tasted the apple.","sense",5.15708208084,1,"1_007","2","active_s",1,1,1
15,179.98,179.99,1,"The child peeled the banana.","sense",6.8241481781,1,"1_007","2","active_s",1,1,1
16,190.27,190.28,2,"The fork called to a sister.","nonsense",4.39674520493,1,"1_007","2","active_ns",1,1,1
17,200.64,200.65,3,"Pie was made by a cousin.","sense",3.80912303925,1,"1_007","2","passive_s",1,1,1
18,215.75,215.76,1,"A family baked some bread.","sense",4.93035721779,1,"1_007","2","active_s",1,1,1
19,225.84,225.84,3,"The ring was owned by a dancer.","sense",6.36223721504,1,"1_007","2","passive_s",1,1,1
20,235.87,235.88,1,"A mom addressed the letter.",NA,NA,4,"1_007","2","active_s",1,0,1
21,247.77,247.79,2,"A candle sold the question.","nonsense",5.22649598122,1,"1_007","2","active_ns",1,1,1
22,257.97,257.97,3,"Clay was rolled by the artist.","sense",5.88347196579,1,"1_007","2","passive_s",1,1,1
23,268.09,268.09,3,"A fence was jumped by a horse.","sense",3.7277610302,1,"1_007","2","passive_s",1,1,1
24,280.16,280.17,1,"A driver honked at the walker.","sense",5.88048291206,1,"1_007","2","active_s",1,1,1
25,296.87,296.89,4,"The woman was pulled by a nut.","nonsense",4.67542099953,1,"1_007","2","passive_ns",1,1,1
26,312.85,312.86,2,"The rabbit bought the worker.","nonsense",3.56872081757,1,"1_007","2","active_ns",1,1,1
27,330.61,330.62,4,"Iron was chased by the bee.","nonsense",4.68174004555,1,"1_007","2","passive_ns",1,1,1
28,343.48,343.49,1,"The aunt walked on the boat.","sense",6.32437205315,1,"1_007","2","active_s",1,1,1
29,360.32,360.33,4,"A ball was prepared by glass.","nonsense",6.91661095619,1,"1_007","2","passive_ns",1,1,1
30,370.6,370.6,2,"The money counted the singer.",NA,NA,4,"1_007","2","active_ns",1,0,1
31,381.02,381.02,4,"Sugar was moved by the sock.","nonsense",4.24023795128,1,"1_007","2","passive_ns",1,1,1
0,0,0.03,2,"A plate stained a kitten.","nonsense",4.0480659008,1,"1_007","3","active_ns",1,1,1
1,10.72,10.74,3,"A wall was marked with paint.",NA,NA,4,"1_007","3","passive_s",1,0,1
2,21.39,21.41,4,"The hill was addressed by soap.","nonsense",4.18225502968,1,"1_007","3","passive_ns",1,1,1
3,38.56,38.57,1,"The baby rolled in the crib.","sense",4.10767316818,1,"1_007","3","active_s",1,1,1
4,54.45,54.46,4,"Dirt was borrowed by the chalk.","sense",5.34129595757,2,"1_007","3","passive_ns",1,0,1
4,54.45,54.46,4,"Dirt was borrowed by the chalk.","nonsense",7.29233384132,2,"1_007","3","passive_ns",0,0,1
4,54.45,54.46,4,"Dirt was borrowed by the chalk.","nonsense",7.69532299042,2,"1_007","3","passive_ns",0,0,1
4,54.45,54.46,4,"Dirt was borrowed by the chalk.","nonsense",7.91938495636,2,"1_007","3","passive_ns",0,0,1
5,64.83,64.84,1,"The cattle listened to the bell.","nonsense",6.05720114708,0,"1_007","3","active_s",1,0,1
6,80.32,80.33,4,"Mud was dressed by air.","nonsense",5.14971518517,1,"1_007","3","passive_ns",1,1,1
7,90.96,90.97,2,"A ring prepared for a potato.","nonsense",7.78540205956,1,"1_007","3","active_ns",1,1,1
8,106.1,106.11,2,"A game owned the doctor.","nonsense",4.67120289803,1,"1_007","3","active_ns",1,1,1
9,116.71,116.72,1,"The sheep escaped from the wolf.","nonsense",6.3331360817,0,"1_007","3","active_s",1,0,1
10,131.58,131.59,1,"A woman bought a pizza.","sense",3.85071587563,1,"1_007","3","active_s",1,1,1
11,143.41,143.43,4,"The phone was boiled by a rat.","nonsense",6.04494810104,1,"1_007","3","passive_ns",1,1,1
12,154.13,154.15,4,"The dog was raised by a spoon.","nonsense",3.53919005394,1,"1_007","3","passive_ns",1,1,1
13,164.48,164.48,3,"A pig was scared by a fox.","sense",4.27190279961,1,"1_007","3","passive_s",1,1,1
14,182.42,182.43,1,"The chicken ate some seed.","sense",4.00377511978,1,"1_007","3","active_s",1,1,1
15,193.7,193.71,2,"The pillow jumped at a bear.","nonsense",7.18812680244,1,"1_007","3","active_ns",1,1,1
16,206.11,206.12,4,"A song was picked by a cat.","nonsense",5.22038388252,1,"1_007","3","passive_ns",1,1,1
17,223.68,223.69,3,"The grass was moved by wind.","sense",3.31478595734,1,"1_007","3","passive_s",1,1,1
18,234.74,234.75,3,"A gift was opened by a boy.","sense",5.90181303024,1,"1_007","3","passive_s",1,1,1
19,250.08,250.09,2,"The actress chased the sugar.","nonsense",5.68163704872,1,"1_007","3","active_ns",1,1,1
20,260.45,260.46,3,"Tea was stirred by the aunt.",NA,NA,4,"1_007","3","passive_s",1,0,1
21,270.85,270.86,1,"The father played the movie.","sense",2.5778670311,1,"1_007","3","active_s",1,1,1
22,280.9,280.92,3,"A hand was licked by a puppy.","sense",6.85314798355,1,"1_007","3","passive_s",1,1,1
23,293.63,293.64,2,"The table climbed on a brother.","nonsense",4.00956296921,1,"1_007","3","active_ns",1,1,1
24,304.11,304.13,4,"The mirror was read by a car.","nonsense",4.86116909981,1,"1_007","3","passive_ns",1,1,1
25,314.89,314.9,1,"The worker built the barn.","sense",5.26048898697,1,"1_007","3","active_s",1,1,1
26,325.02,325.03,3,"A worm was dropped by the bird.",NA,NA,4,"1_007","3","passive_s",1,0,1
27,339.56,339.57,2,"The broom grabbed the queen.","nonsense",6.07742595673,1,"1_007","3","active_ns",1,1,1
28,350.98,350.99,1,"The lion roared at the meat.","sense",6.54134893417,1,"1_007","3","active_s",1,1,1
29,368.12,368.14,4,"A test was cooked by a bat.","nonsense",4.35940003395,1,"1_007","3","passive_ns",1,1,1
30,380.08,380.09,3,"The shot was given by a nurse.","sense",6.4059240818,1,"1_007","3","passive_s",1,1,1
31,395.78,395.8,2,"A shirt chopped at the tray.","nonsense",5.73113799095,1,"1_007","3","active_ns",1,1,1
0,0,0.03,1,"A cowgirl caught a snake.","sense",5.71653604507,1,"1_015","1","active_s",1,1,1
1,10.16,10.17,2,"A piano planted a brother.","nonsense",6.35740590096,1,"1_015","1","active_ns",1,1,1
2,25.97,25.98,3,"The sock was worn by a baby.","sense",7.77729797363,1,"1_015","1","passive_s",1,1,1
3,40.97,40.98,3,"A box was cut by the worker.","nonsense",8.96859622002,0,"1_015","1","passive_s",1,0,1
4,53.69,53.71,2,"The apple watched a king.","nonsense",5.36810302734,1,"1_015","1","active_ns",1,1,1
5,64.57,64.58,3,"A fork was found by the kid.","nonsense",5.69422507286,0,"1_015","1","passive_s",1,0,1
6,75.24,75.25,4,"Seed was raised by the rug.","nonsense",7.51840400696,1,"1_015","1","passive_ns",1,1,1
7,86.91,86.92,1,"The doctor used the phone.","sense",5.58129692078,1,"1_015","1","active_s",1,1,1
7,86.91,86.92,1,"The doctor used the phone.","sense",8.1533370018,1,"1_015","1","active_s",0,0,1
8,103.03,103.04,2,"The chalk wanted a child.","nonsense",8.36357998848,1,"1_015","1","active_ns",1,1,1
9,118.89,118.9,4,"A man was scored by wind.","nonsense",7.79749894142,1,"1_015","1","passive_ns",1,1,1
10,128.92,128.94,1,"The dog chased the car.","sense",4.27328705788,1,"1_015","1","active_s",1,1,1
11,141.14,141.16,3,"The ball was kicked by a girl.","sense",5.32798314095,1,"1_015","1","passive_s",1,1,1
12,151.22,151.23,3,"The egg was laid by the duck.","sense",7.26346302032,1,"1_015","1","passive_s",1,1,1
13,161.68,161.68,4,"A hand was built by the ant.","sense",5.4065990448,2,"1_015","1","passive_ns",1,0,1
13,161.68,161.68,4,"A hand was built by the ant.","nonsense",5.99733495712,2,"1_015","1","passive_ns",0,0,1
13,161.68,161.68,4,"A hand was built by the ant.","nonsense",8.68662595749,2,"1_015","1","passive_ns",0,0,1
14,172.84,172.85,2,"The bread heard a camel.","nonsense",8.35861706734,1,"1_015","1","active_ns",1,1,1
15,183.02,183.03,3,"Cheese was chewed by a rat.","nonsense",5.85199809074,0,"1_015","1","passive_s",1,0,1
16,195.2,195.21,4,"A couch was saved by a plum.","nonsense",7.70304703712,1,"1_015","1","passive_ns",1,1,1
17,212.76,212.77,2,"A pillow scratched the fish.","nonsense",6.30716395378,1,"1_015","1","active_ns",1,1,1
18,223.41,223.43,1,"A turtle crawled to the water.","nonsense",10.3343539238,3,"1_015","1","active_s",1,0,1
19,237.03,237.05,4,"The dragon was won by clay.","nonsense",5.87436485291,1,"1_015","1","passive_ns",1,1,1
20,248.04,248.05,1,"The monkey climbed a tree.","sense",5.33134698868,1,"1_015","1","active_s",1,1,1
21,258.46,258.47,3,"A broom was sold by a farmer.","nonsense",7.83351898193,0,"1_015","1","passive_s",1,0,1
22,274.9,274.91,1,"The rabbit jumped in the grass.","sense",5.20686006546,1,"1_015","1","active_s",1,1,1
23,289.51,289.52,4,"A flower was milked by a bear.","nonsense",8.05751609802,1,"1_015","1","passive_ns",1,1,1
24,303.52,303.53,2,"A chicken shopped at a movie.","nonsense",7.40694689751,1,"1_015","1","active_ns",1,1,1
25,319.75,319.77,1,"The actor pulled on a rope.","nonsense",7.27850198746,0,"1_015","1","active_s",1,0,1
26,329.89,329.9,1,"A teacher graded a paper.","sense",5.68621397018,1,"1_015","1","active_s",1,1,1
26,329.89,329.9,1,"A teacher graded a paper.","sense",10.1253700256,1,"1_015","1","active_s",0,0,1
27,343.4,343.41,4,"The pig was hugged by a joke.","nonsense",5.78099703789,1,"1_015","1","passive_ns",1,1,1
28,353.98,354,2,"A present picked the raccoon.","nonsense",6.80772089958,1,"1_015","1","active_ns",1,1,1
29,370.82,370.84,3,"A cake was baked by mom.","sense",6.89292216301,2,"1_015","1","passive_s",1,0,1
29,370.82,370.84,3,"A cake was baked by mom.","nonsense",9.55099511147,2,"1_015","1","passive_s",0,0,1
30,382.44,382.46,4,"The bug was cooked by a key.","nonsense",5.64286804199,1,"1_015","1","passive_ns",1,1,1
31,392.48,392.5,2,"The bucket told a horse.","nonsense",6.41170692444,1,"1_015","1","active_ns",1,1,1
0,0,0.03,4,"Pasta was waved by a fish.","nonsense",6.0136590004,1,"1_015","3","passive_ns",1,1,1
1,10.89,10.91,2,"A joke hugged the dragon.","nonsense",6.24480199814,1,"1_015","3","active_ns",1,1,1
2,21.08,21.09,3,"A phone was used by a doctor.","sense",5.82279396057,1,"1_015","3","passive_s",1,1,1
3,36.88,36.9,2,"The ear dressed a student.","nonsense",5.58165812492,1,"1_015","3","active_ns",1,1,1
4,50.82,50.84,1,"A fly entered the house.","nonsense",5.64095282555,0,"1_015","3","active_s",1,0,1
5,61.13,61.14,4,"A cup was cut by the pillow.","nonsense",6.37499189377,1,"1_015","3","passive_ns",1,1,1
6,75.94,75.95,3,"Pizza was cooked by the man.","sense",4.03023481369,1,"1_015","3","passive_s",1,1,1
7,87.72,87.74,3,"The show was seen by a child.","sense",6.26134896278,1,"1_015","3","passive_s",1,1,1
8,99.72,99.72,4,"A chair was tasted by a frame.","nonsense",5.56852006912,1,"1_015","3","passive_ns",1,1,1
9,111.38,111.4,4,"Bread was scratched by a tray.","nonsense",7.25359201431,1,"1_015","3","passive_ns",1,1,1
10,122.22,122.23,1,"A mouse chewed on the cheese.","sense",4.18489789963,1,"1_015","3","active_s",1,1,1
10,122.22,122.23,1,"A mouse chewed on the cheese.","sense",7.53400588036,1,"1_015","3","active_s",0,0,1
11,134.13,134.14,2,"The couch sang to the duck.","nonsense",8.58047699928,1,"1_015","3","active_ns",1,1,1
12,146.54,146.54,2,"The iron borrowed a teacher.","nonsense",6.04157090187,1,"1_015","3","active_ns",1,1,1
13,158.49,158.5,3,"A cat was saved by a king.","sense",7.30636096001,1,"1_015","3","passive_s",1,1,1
14,169.83,169.85,1,"The queen planted a flower.","nonsense",4.67982387543,0,"1_015","3","active_s",1,0,1
15,179.98,179.99,1,"The uncle put sugar in the tea.","nonsense",5.60054802895,0,"1_015","3","active_s",1,0,1
15,179.98,179.99,1,"The uncle put sugar in the tea.","nonsense",7.7836329937,0,"1_015","3","active_s",0,0,1
16,190.27,190.28,2,"A basement won the family.","nonsense",6.20031499863,1,"1_015","3","active_ns",1,1,1
17,200.64,200.65,3,"Soup was served by a woman.","nonsense",5.87474012375,2,"1_015","3","passive_s",1,0,1
17,200.64,200.65,3,"Soup was served by a woman.","sense",9.59489202499,2,"1_015","3","passive_s",0,0,1
18,215.75,215.76,1,"A bird dropped the worm.","nonsense",4.6299071312,0,"1_015","3","active_s",1,0,1
19,225.84,225.86,3,"A rug was rolled by the actor.","nonsense",8.44717311859,0,"1_015","3","passive_s",1,0,1
20,235.87,235.88,1,"The boy cleared off the table.","sense",6.17349696159,1,"1_015","3","active_s",1,1,1
21,247.77,247.79,2,"A hen carried the dancer.","nonsense",7.4261469841,1,"1_015","3","active_ns",1,1,1
22,257.97,257.99,3,"The lamp was bought by the sister.","nonsense",5.84507799149,0,"1_015","3","passive_s",1,0,1
23,268.09,268.09,3,"The shirt was stained by mud.","nonsense",5.72129607201,0,"1_015","3","passive_s",1,0,1
24,280.16,280.17,1,"A tiger scared the zebra.","nonsense",5.16393089294,2,"1_015","3","active_s",1,0,1
24,280.16,280.17,1,"A tiger scared the zebra.","sense",8.419039011,2,"1_015","3","active_s",0,0,1
25,296.87,296.89,4,"The girl was told by a fork.","nonsense",6.00187397003,1,"1_015","3","passive_ns",1,1,1
26,312.85,312.86,2,"A fence walked to the mother.","nonsense",8.52907299995,1,"1_015","3","active_ns",1,1,1
27,330.61,330.62,4,"A rope was sold by the frog.","nonsense",4.86126589775,1,"1_015","3","passive_ns",1,1,1
28,343.48,343.49,1,"The banker counted the money.","sense",7.4878320694,1,"1_015","3","active_s",1,1,1
29,360.32,360.33,4,"Pie was raised by the letter.","nonsense",8.03308296204,1,"1_015","3","passive_ns",1,1,1
30,370.6,370.62,2,"The snake asked for the father.","nonsense",7.68662905693,1,"1_015","3","active_ns",1,1,1
31,381.02,381.04,4,"Fire was licked by a banana.","nonsense",5.88725996017,1,"1_015","3","passive_ns",1,1,1
0,0,0.03,4,"A hand was built by the ant.","nonsense",4.48092603683,1,"1_020","1","passive_ns",1,1,1
1,10.89,10.91,2,"The bread heard a camel.",NA,NA,4,"1_020","1","active_ns",1,0,1
2,21.08,21.09,3,"Cheese was chewed by a rat.","sense",7.10674405098,1,"1_020","1","passive_s",1,1,1
3,36.88,36.9,2,"The chalk wanted a child.",NA,NA,4,"1_020","1","active_ns",1,0,1
4,50.82,50.84,1,"The dog chased the car.","sense",2.30092215538,1,"1_020","1","active_s",1,1,1
5,61.13,61.14,4,"A couch was saved by a plum.","nonsense",4.82720208168,1,"1_020","1","passive_ns",1,1,1
6,75.94,75.95,3,"The ball was kicked by a girl.","sense",4.59358119965,1,"1_020","1","passive_s",1,1,1
7,87.72,87.74,3,"The sock was worn by a baby.","sense",7.15579605103,1,"1_020","1","passive_s",1,1,1
8,99.72,99.74,4,"A flower was milked by a bear.","nonsense",5.6271879673,1,"1_020","1","passive_ns",1,1,1
9,111.38,111.4,4,"The pig was hugged by a joke.","sense",7.60178613663,0,"1_020","1","passive_ns",1,0,1
10,122.22,122.23,1,"A turtle crawled to the water.",NA,NA,4,"1_020","1","active_s",1,0,1
11,134.13,134.14,2,"The bucket told a horse.","nonsense",4.48151898384,1,"1_020","1","active_ns",1,1,1
12,146.54,146.54,2,"A present picked the raccoon.","sense",6.5479080677,0,"1_020","1","active_ns",1,0,1
13,158.49,158.5,3,"A fork was found by the kid.","sense",4.76927185059,1,"1_020","1","passive_s",1,1,1
14,169.83,169.84,1,"A teacher graded a paper.","sense",5.18357396126,1,"1_020","1","active_s",1,1,1
15,179.98,179.99,1,"The doctor used the phone.","sense",3.33150792122,1,"1_020","1","active_s",1,1,1
16,190.27,190.28,2,"A piano planted a brother.","nonsense",5.43243288994,1,"1_020","1","active_ns",1,1,1
17,200.64,200.65,3,"A cake was baked by mom.","sense",3.63478589058,1,"1_020","1","passive_s",1,1,1
18,215.75,215.76,1,"The actor pulled on a rope.","sense",5.5811650753,1,"1_020","1","active_s",1,1,1
19,225.84,225.86,3,"A box was cut by the worker.","sense",4.08607292175,1,"1_020","1","passive_s",1,1,1
20,235.87,235.88,1,"The rabbit jumped in the grass.","sense",3.34366083145,1,"1_020","1","active_s",1,1,1
20,235.87,235.88,1,"The rabbit jumped in the grass.","sense",6.28071188927,1,"1_020","1","active_s",0,0,1
21,247.77,247.79,2,"A chicken shopped at a movie.","nonsense",5.87904596329,1,"1_020","1","active_ns",1,1,1
22,257.97,257.99,3,"A broom was sold by a farmer.",NA,NA,4,"1_020","1","passive_s",1,0,1
23,268.09,268.09,3,"The egg was laid by the duck.","sense",4.58825421333,1,"1_020","1","passive_s",1,1,1
24,280.16,280.17,1,"The monkey climbed a tree.","sense",4.29697990417,1,"1_020","1","active_s",1,1,1
25,296.87,296.89,4,"Seed was raised by the rug.","nonsense",7.27404308319,1,"1_020","1","passive_ns",1,1,1
26,312.85,312.86,2,"The apple watched a king.","nonsense",5.50916600227,1,"1_020","1","active_ns",1,1,1
27,330.61,330.62,4,"The bug was cooked by a key.","nonsense",7.6554889679,1,"1_020","1","passive_ns",1,1,1
28,343.48,343.49,1,"A cowgirl caught a snake.","sense",5.50386786461,1,"1_020","1","active_s",1,1,1
29,360.32,360.33,4,"The dragon was won by clay.",NA,NA,4,"1_020","1","passive_ns",1,0,1
30,370.6,370.62,2,"A pillow scratched the fish.","sense",6.17391896248,0,"1_020","1","active_ns",1,0,1
31,381.02,381.02,4,"A man was scored by wind.","nonsense",4.91485500336,1,"1_020","1","passive_ns",1,1,1
0,0,0.03,1,"A bird dropped the worm.","sense",3.18843483925,1,"1_020","3","active_s",1,1,1
1,10.16,10.17,2,"The couch sang to the duck.","sense",3.99725103378,0,"1_020","3","active_ns",1,0,1
2,25.97,25.98,3,"The show was seen by a child.","sense",4.38621592522,1,"1_020","3","passive_s",1,1,1
3,40.97,40.98,3,"A rug was rolled by the actor.","sense",4.13044714928,1,"1_020","3","passive_s",1,1,1
4,53.69,53.71,2,"A hen carried the dancer.","sense",4.66395401955,0,"1_020","3","active_ns",1,0,1
5,64.57,64.58,3,"Pizza was cooked by the man.","sense",3.66007590294,1,"1_020","3","passive_s",1,1,1
6,75.24,75.25,4,"A chair was tasted by a frame.","nonsense",4.09143209457,1,"1_020","3","passive_ns",1,1,1
7,86.91,86.92,1,"The uncle put sugar in the tea.","sense",4.7603700161,1,"1_020","3","active_s",1,1,1
8,103.03,103.04,2,"A fence walked to the mother.","sense",3.9795050621,0,"1_020","3","active_ns",1,0,1
8,103.03,103.04,2,"A fence walked to the mother.","sense",8.17465114594,0,"1_020","3","active_ns",0,0,1
9,118.89,118.9,4,"Fire was licked by a banana.","nonsense",5.66842103004,1,"1_020","3","passive_ns",1,1,1
10,128.92,128.94,1,"A fly entered the house.","nonsense",4.40219688416,0,"1_020","3","active_s",1,0,1
11,141.14,141.16,3,"A cat was saved by a king.","sense",5.1278488636,1,"1_020","3","passive_s",1,1,1
12,151.22,151.23,3,"The shirt was stained by mud.","sense",6.71354198456,1,"1_020","3","passive_s",1,1,1
13,161.68,161.68,4,"Pasta was waved by a fish.","nonsense",6.13042211533,1,"1_020","3","passive_ns",1,1,1
14,172.84,172.85,2,"A joke hugged the dragon.","nonsense",4.94748401642,1,"1_020","3","active_ns",1,1,1
15,183.02,183.03,3,"A phone was used by a doctor.","sense",6.33187103271,1,"1_020","3","passive_s",1,1,1
16,195.2,195.21,4,"A cup was cut by the pillow.","nonsense",6.86481595039,1,"1_020","3","passive_ns",1,1,1
17,212.76,212.77,2,"The snake asked for the father.","nonsense",6.92832112312,1,"1_020","3","active_ns",1,1,1
18,223.41,223.43,1,"A mouse chewed on the cheese.","sense",5.27411723137,1,"1_020","3","active_s",1,1,1
19,237.03,237.05,4,"Pie was raised by the letter.","nonsense",5.47932100296,1,"1_020","3","passive_ns",1,1,1
20,248.04,248.05,1,"The banker counted the money.","nonsense",6.69108915329,0,"1_020","3","active_s",1,0,1
21,258.46,258.47,3,"The lamp was bought by the sister.","nonsense",6.80444598198,0,"1_020","3","passive_s",1,0,1
22,274.9,274.91,1,"The boy cleared off the table.","sense",6.18286895752,1,"1_020","3","active_s",1,1,1
23,289.51,289.52,4,"Bread was scratched by a tray.","sense",8.6553208828,0,"1_020","3","passive_ns",1,0,1
24,303.52,303.53,2,"The ear dressed a student.","nonsense",3.61681985855,1,"1_020","3","active_ns",1,1,1
25,319.75,319.77,1,"The queen planted a flower.","sense",3.59332299232,1,"1_020","3","active_s",1,1,1
26,329.89,329.9,1,"A tiger scared the zebra.","nonsense",5.22412991524,0,"1_020","3","active_s",1,0,1
27,343.4,343.41,4,"A rope was sold by the frog.","nonsense",6.51999998093,1,"1_020","3","passive_ns",1,1,1
28,353.98,354,2,"The iron borrowed a teacher.","nonsense",6.55170702934,1,"1_020","3","active_ns",1,1,1
29,370.82,370.84,3,"Soup was served by a woman.","sense",7.52988219261,1,"1_020","3","passive_s",1,1,1
30,382.44,382.46,4,"The girl was told by a fork.","nonsense",7.87487792969,1,"1_020","3","passive_ns",1,1,1
31,392.48,392.5,2,"A basement won the family.","nonsense",7.19661784172,1,"1_020","3","active_ns",1,1,1
0,0,0.03,1,"A cousin wanted a pillow.","sense",6.31299114227,1,"1_028","1","active_s",1,1,1
1,10.16,10.17,2,"The woman scared the paper.","nonsense",2.74576807022,1,"1_028","1","active_ns",1,1,1
1,10.16,10.17,2,"The woman scared the paper.","nonsense",6.34366798401,1,"1_028","1","active_ns",0,0,1
2,25.97,25.98,3,"A home was entered by the men.","sense",9.7117600441,1,"1_028","1","passive_s",1,1,1
3,40.97,40.98,3,"The plum was tasted by a bear.","nonsense",3.33088803291,0,"1_028","1","passive_s",1,0,1
4,53.69,53.71,2,"The barn barked at the driver.","nonsense",4.31733202934,1,"1_028","1","active_ns",1,1,1
5,64.57,64.58,3,"A song was sung by the cowboy.","sense",4.92441987991,1,"1_028","1","passive_s",1,1,1
6,75.24,75.25,4,"A chicken was asked by a bell.","nonsense",3.33163905144,1,"1_028","1","passive_ns",1,1,1
7,86.91,86.92,1,"The actress watched a show.","nonsense",3.72860789299,0,"1_028","1","active_s",1,0,1
8,103.03,103.04,2,"The key opened the carrot.","nonsense",2.62779903412,1,"1_028","1","active_ns",1,1,1
9,118.89,118.9,4,"Pizza was used by a book.","nonsense",2.98376107216,1,"1_028","1","passive_ns",1,1,1
10,128.92,128.94,1,"A raccoon scratched at the box.","sense",6.54973101616,1,"1_028","1","active_s",1,1,1
11,141.14,141.16,3,"The car was chased by a dog.","nonsense",5.33426594734,0,"1_028","1","passive_s",1,0,1
12,151.22,151.23,3,"A rope was pulled by the ape.","nonsense",4.62585115433,0,"1_028","1","passive_s",1,0,1
13,161.68,161.68,4,"A horse was peeled by salt.","nonsense",4.70971393585,1,"1_028","1","passive_ns",1,1,1
14,172.84,172.85,2,"A boat raced in the library.","nonsense",4.24280810356,1,"1_028","1","active_ns",1,1,1
15,183.02,183.03,3,"The movie was played by dad.","nonsense",4.70236992836,0,"1_028","1","passive_s",1,0,1
16,195.2,195.21,4,"The soup was caught by a ring.","nonsense",5.44027996063,1,"1_028","1","passive_ns",1,1,1
17,212.76,212.77,2,"The sock listened to the pig.","nonsense",3.96553111076,1,"1_028","1","active_ns",1,1,1
18,223.41,223.43,1,"A clown let go of a balloon.","sense",5.69659113884,1,"1_028","1","active_s",1,1,1
19,237.03,237.05,4,"The boy was owned by a lamp.","sense",4.04265117645,0,"1_028","1","passive_ns",1,0,1
20,248.04,248.05,1,"A falcon grabbed the egg.","sense",3.48148012161,1,"1_028","1","active_s",1,1,1
21,258.46,258.47,3,"The test was read by a teacher.","sense",4.31887102127,1,"1_028","1","passive_s",1,1,1
22,274.9,274.91,1,"The mother carried a cake.","sense",5.60418796539,1,"1_028","1","active_s",1,1,1
23,289.51,289.52,4,"A table was planted by a kid.","nonsense",6.6787211895,1,"1_028","1","passive_ns",1,1,1
24,303.52,303.53,2,"The flag roared at a flower.","nonsense",4.17136096954,1,"1_028","1","active_ns",1,1,1
25,319.75,319.77,1,"A girl kicked the ball.","sense",3.60572600365,1,"1_028","1","active_s",1,1,1
26,329.89,329.9,1,"The baker stirred the spoon.","nonsense",5.34251403809,0,"1_028","1","active_s",1,0,1
27,343.4,343.41,4,"The door was eaten by a pot.","nonsense",6.17737603188,1,"1_028","1","passive_ns",1,1,1
28,353.98,354,2,"A goat graded the mirror.","nonsense",4.70494103432,1,"1_028","1","active_ns",1,1,1
29,370.82,370.84,3,"Seed was pecked by a hen.","sense",5.75220012665,1,"1_028","1","passive_s",1,1,1
30,382.44,382.46,4,"A king was chewed by a tree.","nonsense",4.76607608795,1,"1_028","1","passive_ns",1,1,1
31,392.48,392.49,2,"The banana lost the worm.","nonsense",4.21495699883,1,"1_028","1","active_ns",1,1,1
0,0,0.03,4,"Pasta was waved by a fish.","nonsense",4.49034905434,1,"1_028","2","passive_ns",1,1,1
1,10.89,10.91,2,"A joke hugged the dragon.","nonsense",3.30381202698,1,"1_028","2","active_ns",1,1,1
2,21.08,21.09,3,"A phone was used by a doctor.","sense",4.99858593941,1,"1_028","2","passive_s",1,1,1
3,36.88,36.9,2,"The ear dressed a student.","nonsense",3.92256188393,1,"1_028","2","active_ns",1,1,1
4,50.82,50.84,1,"A fly entered the house.","sense",3.99388384819,1,"1_028","2","active_s",1,1,1
5,61.13,61.14,4,"A cup was cut by the pillow.","nonsense",4.73704695702,1,"1_028","2","passive_ns",1,1,1
6,75.94,75.95,3,"Pizza was cooked by the man.","sense",3.51927709579,1,"1_028","2","passive_s",1,1,1
7,87.72,87.74,3,"The show was seen by a child.","nonsense",3.48731303215,2,"1_028","2","passive_s",1,0,1
7,87.72,87.74,3,"The show was seen by a child.","sense",5.50741004944,2,"1_028","2","passive_s",0,0,1
8,99.72,99.72,4,"A chair was tasted by a frame.","nonsense",4.76253604889,1,"1_028","2","passive_ns",1,1,1
9,111.38,111.4,4,"Bread was scratched by a tray.","sense",7.0034301281,2,"1_028","2","passive_ns",1,0,1
9,111.38,111.4,4,"Bread was scratched by a tray.","nonsense",7.96450400352,2,"1_028","2","passive_ns",0,0,1
10,122.22,122.23,1,"A mouse chewed on the cheese.","sense",2.74101209641,1,"1_028","2","active_s",1,1,1
11,134.13,134.14,2,"The couch sang to the duck.","nonsense",4.1483399868,1,"1_028","2","active_ns",1,1,1
12,146.54,146.54,2,"The iron borrowed a teacher.","nonsense",3.97062492371,1,"1_028","2","active_ns",1,1,1
13,158.49,158.5,3,"A cat was saved by a king.","sense",4.50805687904,1,"1_028","2","passive_s",1,1,1
14,169.83,169.85,1,"The queen planted a flower.","sense",2.71263313293,1,"1_028","2","active_s",1,1,1
15,179.98,179.99,1,"The uncle put sugar in the tea.","sense",5.64253783226,1,"1_028","2","active_s",1,1,1
16,190.27,190.28,2,"A basement won the family.","nonsense",3.77925395966,1,"1_028","2","active_ns",1,1,1
17,200.64,200.65,3,"Soup was served by a woman.","sense",6.21867918968,1,"1_028","2","passive_s",1,1,1
18,215.75,215.76,1,"A bird dropped the worm.","sense",3.755849123,1,"1_028","2","active_s",1,1,1
19,225.84,225.86,3,"A rug was rolled by the actor.","sense",4.64804792404,1,"1_028","2","passive_s",1,1,1
20,235.87,235.88,1,"The boy cleared off the table.","sense",3.47349095345,1,"1_028","2","active_s",1,1,1
21,247.77,247.79,2,"A hen carried the dancer.","nonsense",5.30295300484,1,"1_028","2","active_ns",1,1,1
22,257.97,257.99,3,"The lamp was bought by the sister.","nonsense",5.30288004875,0,"1_028","2","passive_s",1,0,1
23,268.09,268.09,3,"The shirt was stained by mud.","sense",5.9592320919,1,"1_028","2","passive_s",1,1,1
24,280.16,280.17,1,"A tiger scared the zebra.","sense",3.91991686821,1,"1_028","2","active_s",1,1,1
25,296.87,296.89,4,"The girl was told by a fork.","nonsense",4.63589906693,1,"1_028","2","passive_ns",1,1,1
26,312.85,312.86,2,"A fence walked to the mother.","nonsense",7.26925301552,1,"1_028","2","active_ns",1,1,1
27,330.61,330.62,4,"A rope was sold by the frog.","nonsense",7.02722096443,1,"1_028","2","passive_ns",1,1,1
28,343.48,343.49,1,"The banker counted the money.","sense",5.46779298782,1,"1_028","2","active_s",1,1,1
29,360.32,360.33,4,"Pie was raised by the letter.","sense",5.53712797165,0,"1_028","2","passive_ns",1,0,1
30,370.6,370.62,2,"The snake asked for the father.","nonsense",5.76190805435,1,"1_028","2","active_ns",1,1,1
31,381.02,381.04,4,"Fire was licked by a banana.","nonsense",4.57612681389,1,"1_028","2","passive_ns",1,1,1
0,0,0.03,1,"A cowgirl caught a snake.","sense",3.56508612633,1,"2_008","1","active_s",1,1,1
1,10.16,10.17,2,"A piano planted a brother.","nonsense",3.38386702538,1,"2_008","1","active_ns",1,1,1
2,25.97,25.98,3,"The sock was worn by a baby.","sense",6.66493678093,1,"2_008","1","passive_s",1,1,1
3,40.97,40.98,3,"A box was cut by the worker.","sense",4.30917882919,1,"2_008","1","passive_s",1,1,1
4,53.69,53.71,2,"The apple watched a king.","nonsense",2.87560582161,1,"2_008","1","active_ns",1,1,1
5,64.57,64.58,3,"A fork was found by the kid.","sense",4.19286894798,1,"2_008","1","passive_s",1,1,1
6,75.24,75.25,4,"Seed was raised by the rug.","nonsense",5.41503500938,1,"2_008","1","passive_ns",1,1,1
7,86.91,86.92,1,"The doctor used the phone.","sense",4.03978419304,1,"2_008","1","active_s",1,1,1
8,103.03,103.04,2,"The chalk wanted a child.","nonsense",7.58624696732,1,"2_008","1","active_ns",1,1,1
9,118.89,118.9,4,"A man was scored by wind.","nonsense",5.40107107162,1,"2_008","1","passive_ns",1,1,1
10,128.92,128.94,1,"The dog chased the car.","sense",1.89481186867,1,"2_008","1","active_s",1,1,1
11,141.14,141.16,3,"The ball was kicked by a girl.","sense",5.05449390411,1,"2_008","1","passive_s",1,1,1
12,151.22,151.23,3,"The egg was lost by the duck.","sense",5.16602087021,1,"2_008","1","passive_s",1,1,1
13,161.68,161.68,4,"A hand was built by the ant.","nonsense",4.11025905609,1,"2_008","1","passive_ns",1,1,1
14,172.84,172.86,2,"The bread heard a camel.","nonsense",3.79108405113,1,"2_008","1","active_ns",1,1,1
15,183.02,183.03,3,"Cheese was chewed by a rat.","sense",4.66562199593,1,"2_008","1","passive_s",1,1,1
16,195.2,195.21,4,"A couch was saved by a plum.","nonsense",5.93659710884,1,"2_008","1","passive_ns",1,1,1
17,212.76,212.77,2,"A pillow scratched the fish.","nonsense",3.25782299042,1,"2_008","1","active_ns",1,1,1
18,223.41,223.43,1,"A turtle crawled to the water.","sense",5.59886097908,1,"2_008","1","active_s",1,1,1
19,237.03,237.05,4,"The dragon was won by clay.","nonsense",4.65582299232,1,"2_008","1","passive_ns",1,1,1
20,248.04,248.05,1,"The monkey climbed a tree.","sense",3.1476790905,1,"2_008","1","active_s",1,1,1
21,258.46,258.47,3,"A broom was sold by a farmer.","sense",3.33256697655,1,"2_008","1","passive_s",1,1,1
22,274.9,274.91,1,"The rabbit jumped in the grass.","sense",5.94535899162,1,"2_008","1","active_s",1,1,1
23,289.51,289.52,4,"A flower was milked by a bear.","nonsense",4.12587499619,1,"2_008","1","passive_ns",1,1,1
24,303.52,303.53,2,"A chicken shopped at a movie.","nonsense",6.03553795815,1,"2_008","1","active_ns",1,1,1
25,319.75,319.77,1,"The actor pulled on a rope.","sense",6.01415205002,1,"2_008","1","active_s",1,1,1
26,329.89,329.9,1,"A teacher graded a paper.","sense",3.51279592514,1,"2_008","1","active_s",1,1,1
27,343.4,343.41,4,"The pig was hugged by a joke.","nonsense",4.61760902405,1,"2_008","1","passive_ns",1,1,1
28,353.98,354,2,"A present picked the raccoon.","nonsense",4.29916596413,1,"2_008","1","active_ns",1,1,1
29,370.82,370.84,3,"A cake was baked by mom.","sense",4.20043992996,1,"2_008","1","passive_s",1,1,1
30,382.44,382.46,4,"The bug was cooked by a key.","nonsense",5.41951799393,1,"2_008","1","passive_ns",1,1,1
31,392.48,392.5,2,"The bucket told a horse.","nonsense",5.47024011612,1,"2_008","1","active_ns",1,1,1
0,0,0.03,4,"Pasta was waved by a fish.","nonsense",2.99097180367,1,"2_008","2","passive_ns",1,1,1
1,10.89,10.91,2,"A joke hugged the dragon.","nonsense",2.4551460743,1,"2_008","2","active_ns",1,1,1
2,21.08,21.09,3,"A phone was used by a doctor.","sense",4.20507311821,1,"2_008","2","passive_s",1,1,1
3,36.88,36.9,2,"The ear dressed a student.","nonsense",4.23600196838,1,"2_008","2","active_ns",1,1,1
4,50.82,50.84,1,"A fly entered the house.","sense",2.13222885132,1,"2_008","2","active_s",1,1,1
5,61.13,61.14,4,"A cup was cut by the pillow.","sense",6.57340407372,0,"2_008","2","passive_ns",1,0,1
6,75.94,75.95,3,"Pizza was cooked by the man.","sense",4.67366814613,1,"2_008","2","passive_s",1,1,1
7,87.72,87.74,3,"The show was seen by a child.","sense",4.71093082428,1,"2_008","2","passive_s",1,1,1
8,99.72,99.72,4,"A chair was tasted by a frame.","nonsense",4.77896904945,1,"2_008","2","passive_ns",1,1,1
9,111.38,111.4,4,"Bread was scratched by a tray.","nonsense",6.12888908386,1,"2_008","2","passive_ns",1,1,1
10,122.22,122.23,1,"A mouse chewed on the cheese.","sense",3.56035208702,1,"2_008","2","active_s",1,1,1
11,134.13,134.14,2,"The couch sang to the duck.","sense",5.17689800262,0,"2_008","2","active_ns",1,0,1
12,146.54,146.54,2,"The iron borrowed a teacher.","nonsense",4.91802501678,1,"2_008","2","active_ns",1,1,1
13,158.49,158.5,3,"A cat was saved by a king.","sense",5.96363019943,1,"2_008","2","passive_s",1,1,1
14,169.83,169.84,1,"The queen planted a flower.","sense",3.33983421326,1,"2_008","2","active_s",1,1,1
15,179.98,179.99,1,"The uncle put sugar in the tea.","sense",4.07299208641,1,"2_008","2","active_s",1,1,1
16,190.27,190.28,2,"A basement won the family.","nonsense",6.20685601234,1,"2_008","2","active_ns",1,1,1
17,200.64,200.65,3,"Soup was served by a woman.","sense",3.29105997086,1,"2_008","2","passive_s",1,1,1
18,215.75,215.76,1,"A bird dropped the worm.","sense",3.62821006775,1,"2_008","2","active_s",1,1,1
19,225.84,225.84,3,"A rug was rolled by the actor.","sense",3.3779129982,1,"2_008","2","passive_s",1,1,1
20,235.87,235.88,1,"The boy cleared off the table.","sense",3.69205713272,1,"2_008","2","active_s",1,1,1
21,247.77,247.79,2,"A hen carried the dancer.","nonsense",2.23338508606,1,"2_008","2","active_ns",1,1,1
22,257.97,257.97,3,"The lamp was bought by the sister.","sense",6.25600409508,1,"2_008","2","passive_s",1,1,1
23,268.09,268.09,3,"The shirt was stained by mud.","sense",5.27167510986,1,"2_008","2","passive_s",1,1,1
24,280.16,280.17,1,"A tiger scared the zebra.","sense",2.71713113785,1,"2_008","2","active_s",1,1,1
25,296.87,296.89,4,"The girl was told by a fork.","nonsense",4.61726617813,1,"2_008","2","passive_ns",1,1,1
26,312.85,312.86,2,"A fence walked to the mother.","nonsense",4.72149705887,1,"2_008","2","active_ns",1,1,1
27,330.61,330.62,4,"A rope was sold by the frog.","nonsense",3.26177096367,1,"2_008","2","passive_ns",1,1,1
28,343.48,343.49,1,"The banker counted the money.","sense",4.12116980553,1,"2_008","2","active_s",1,1,1
29,360.32,360.33,4,"Pie was raised by the letter.","nonsense",3.57942795753,1,"2_008","2","passive_ns",1,1,1
30,370.6,370.62,2,"The snake asked for the father.","nonsense",5.29114103317,1,"2_008","2","active_ns",1,1,1
31,381.02,381.02,4,"Fire was licked by a banana.","nonsense",2.7698829174,1,"2_008","2","passive_ns",1,1,1
0,0,0.03,2,"The key opened the carrot.","nonsense",2.60163187981,1,"2_008","3","active_ns",1,1,1
1,10.72,10.74,3,"The car was chased by a dog.","nonsense",3.66955399513,0,"2_008","3","passive_s",1,0,1
2,21.39,21.41,4,"A chicken was asked by a bell.","nonsense",5.34495592117,1,"2_008","3","passive_ns",1,1,1
3,38.56,38.57,1,"A falcon grabbed the egg.","sense",4.70922899246,1,"2_008","3","active_s",1,1,1
4,54.45,54.46,4,"A horse was peeled by salt.","nonsense",5.58795595169,1,"2_008","3","passive_ns",1,1,1
5,64.83,64.84,1,"The baker stirred the spoon.","sense",6.5195338726,1,"2_008","3","active_s",1,1,1
6,80.32,80.33,4,"Pizza was used by a book.","nonsense",4.11136817932,1,"2_008","3","passive_ns",1,1,1
7,90.96,90.97,2,"A goat graded the mirror.","nonsense",4.43502211571,1,"2_008","3","active_ns",1,1,1
8,106.1,106.11,2,"A boat raced in the library.","nonsense",3.15573906898,1,"2_008","3","active_ns",1,1,1
9,116.71,116.72,1,"The mother carried a cake.","sense",3.62259793282,1,"2_008","3","active_s",1,1,1
10,131.58,131.59,1,"A cousin wanted a pillow.","sense",2.9113509655,1,"2_008","3","active_s",1,1,1
11,143.41,143.43,4,"The door was eaten by a pot.","nonsense",4.02462005615,1,"2_008","3","passive_ns",1,1,1
12,154.13,154.15,4,"A king was chewed by a tree.","nonsense",4.13178491592,1,"2_008","3","passive_ns",1,1,1
13,164.48,164.48,3,"The plum was tasted by a bear.","sense",4.97557020187,1,"2_008","3","passive_s",1,1,1
14,182.42,182.43,1,"The actress watched a show.","sense",4.27630496025,1,"2_008","3","active_s",1,1,1
15,193.7,193.71,2,"The banana lost the worm.","nonsense",3.36659884453,1,"2_008","3","active_ns",1,1,1
16,206.11,206.12,4,"A table was planted by a kid.","nonsense",7.36199593544,1,"2_008","3","passive_ns",1,1,1
17,223.68,223.69,3,"The movie was played by dad.","sense",3.57652592659,1,"2_008","3","passive_s",1,1,1
18,234.74,234.75,3,"Seed was pecked by a hen.","sense",4.81734585762,1,"2_008","3","passive_s",1,1,1
19,250.08,250.09,2,"The flag roared at a flower.","nonsense",3.91711497307,1,"2_008","3","active_ns",1,1,1
20,260.45,260.46,3,"A home was entered by the fly.","nonsense",6.24973297119,0,"2_008","3","passive_s",1,0,1
21,270.85,270.86,1,"A girl kicked the ball.","sense",3.17035698891,1,"2_008","3","active_s",1,1,1
22,280.9,280.92,3,"A song was sung by the cowboy.","nonsense",6.36372709274,0,"2_008","3","passive_s",1,0,1
23,293.63,293.64,2,"The woman scared the paper.","nonsense",3.56527805328,1,"2_008","3","active_ns",1,1,1
24,304.11,304.13,4,"The boy was owned by a lamp.","sense",4.50989985466,0,"2_008","3","passive_ns",1,0,1
25,314.89,314.9,1,"A clown let go of a balloon.","sense",4.62903499603,1,"2_008","3","active_s",1,1,1
26,325.02,325.03,3,"The test was read by a teacher.","sense",5.32396101952,1,"2_008","3","passive_s",1,1,1
27,339.56,339.57,2,"The barn barked at the driver.","sense",4.39505290985,0,"2_008","3","active_ns",1,0,1
28,350.98,350.99,1,"A raccoon scratched at the box.","nonsense",6.7421309948,0,"2_008","3","active_s",1,0,1
29,368.12,368.14,4,"The soup was caught by a ring.","nonsense",3.93709015846,1,"2_008","3","passive_ns",1,1,1
30,380.08,380.09,3,"A rope was pulled by the ape.","sense",3.24548101425,1,"2_008","3","passive_s",1,1,1
31,395.78,395.8,2,"The sock listened to the pig.","sense",4.83245801926,0,"2_008","3","active_ns",1,0,1
0,0,0.03,2,"A pillow scratched the fish.","nonsense",4.60362696648,1,"2_010","1","active_ns",1,1,1
1,10.72,10.74,3,"A broom was sold by a farmer.","sense",4.87754392624,1,"2_010","1","passive_s",1,1,1
2,21.39,21.41,4,"The dragon was won by clay.","nonsense",4.49983501434,1,"2_010","1","passive_ns",1,1,1
3,38.56,38.57,1,"The monkey climbed a tree.","sense",3.43109583855,1,"2_010","1","active_s",1,1,1
4,54.45,54.46,4,"A man was scored by wind.","sense",5.40883803368,0,"2_010","1","passive_ns",1,0,1
5,64.83,64.84,1,"The rabbit jumped in the grass.","sense",3.57236409187,1,"2_010","1","active_s",1,1,1
6,80.32,80.33,4,"A flower was milked by a bear.","nonsense",4.41930508614,1,"2_010","1","passive_ns",1,1,1
7,90.96,90.97,2,"A chicken shopped at a movie.","nonsense",5.76188993454,1,"2_010","1","active_ns",1,1,1
8,106.1,106.11,2,"The apple watched a king.","nonsense",3.36464095116,1,"2_010","1","active_ns",1,1,1
9,116.71,116.72,1,"The actor pulled on a rope.","sense",3.33963418007,1,"2_010","1","active_s",1,1,1
10,131.58,131.59,1,"A cowgirl caught a snake.","sense",4.58229279518,1,"2_010","1","active_s",1,1,1
11,143.41,143.43,4,"The bug was cooked by a key.","nonsense",5.72251391411,1,"2_010","1","passive_ns",1,1,1
12,154.13,154.15,4,"Seed was raised by the rug.","nonsense",6.00266599655,1,"2_010","1","passive_ns",1,1,1
13,164.48,164.48,3,"A box was cut by the worker.","nonsense",5.9564268589,0,"2_010","1","passive_s",1,0,1
14,182.42,182.43,1,"The doctor used the phone.","sense",4.64021587372,1,"2_010","1","active_s",1,1,1
15,193.7,193.71,2,"A piano planted a brother.","nonsense",3.96660804749,1,"2_010","1","active_ns",1,1,1
16,206.11,206.12,4,"The pig was hugged by a joke.","nonsense",5.68907904625,1,"2_010","1","passive_ns",1,1,1
17,223.68,223.69,3,"A cake was baked by mom.","sense",3.76558995247,1,"2_010","1","passive_s",1,1,1
18,234.74,234.75,3,"The egg was laid by the duck.","nonsense",7.54535198212,0,"2_010","1","passive_s",1,0,1
19,250.08,250.09,2,"A present picked the raccoon.","nonsense",6.65714716911,1,"2_010","1","active_ns",1,1,1
20,260.45,260.46,3,"A fork was found by the kid.","sense",5.87353610992,1,"2_010","1","passive_s",1,1,1
21,270.85,270.86,1,"The dog chased the car.","sense",2.76147294044,1,"2_010","1","active_s",1,1,1
22,280.9,280.92,3,"The sock was worn by a baby.","sense",5.75857281685,1,"2_010","1","passive_s",1,1,1
23,293.63,293.64,2,"The bucket told a horse.","nonsense",5.8161110878,1,"2_010","1","active_ns",1,1,1
24,304.11,304.13,4,"A couch was saved by a plum.","nonsense",5.82399296761,1,"2_010","1","passive_ns",1,1,1
25,314.89,314.9,1,"A teacher graded a paper.","sense",4.21395802498,1,"2_010","1","active_s",1,1,1
26,325.02,325.03,3,"The ball was kicked by a girl.","sense",4.93679094315,1,"2_010","1","passive_s",1,1,1
27,339.56,339.57,2,"The chalk wanted a child.","nonsense",5.88989496231,1,"2_010","1","active_ns",1,1,1
28,350.98,350.99,1,"A turtle crawled to the water.","sense",4.22876191139,1,"2_010","1","active_s",1,1,1
29,368.12,368.13,4,"A hand was built by the ant.","nonsense",4.91199588776,1,"2_010","1","passive_ns",1,1,1
30,380.08,380.09,3,"Cheese was chewed by a rat.","sense",4.22433304787,1,"2_010","1","passive_s",1,1,1
31,395.78,395.8,2,"The bread heard a camel.","nonsense",7.6014277935,1,"2_010","1","active_ns",1,1,1
0,0,0.03,1,"A bird dropped the worm.","sense",3.38944101334,1,"2_010","2","active_s",1,1,1
1,10.16,10.17,2,"The couch sang to the duck.","sense",5.10135197639,0,"2_010","2","active_ns",1,0,1
2,25.97,25.98,3,"The show was seen by a child.","sense",5.42925310135,1,"2_010","2","passive_s",1,1,1
3,40.97,40.98,3,"A rug was rolled by the actor.","nonsense",5.5155608654,0,"2_010","2","passive_s",1,0,1
4,53.69,53.71,2,"A hen carried the dancer.","nonsense",3.65406513214,1,"2_010","2","active_ns",1,1,1
5,64.57,64.58,3,"Pizza was cooked by the man.","sense",4.62125396729,1,"2_010","2","passive_s",1,1,1
6,75.24,75.25,4,"A chair was tasted by a frame.","nonsense",4.25544500351,1,"2_010","2","passive_ns",1,1,1
7,86.91,86.92,1,"The uncle put sugar in the tea.","sense",4.9763610363,1,"2_010","2","active_s",1,1,1
8,103.03,103.04,2,"A fence walked to the mother.","nonsense",3.94643115997,1,"2_010","2","active_ns",1,1,1
9,118.89,118.9,4,"Fire was licked by a banana.","nonsense",5.38445901871,1,"2_010","2","passive_ns",1,1,1
10,128.92,128.94,1,"A fly entered the house.","sense",4.69942879677,1,"2_010","2","active_s",1,1,1
11,141.14,141.16,3,"A cat was saved by a king.","sense",6.49796009064,1,"2_010","2","passive_s",1,1,1
12,151.22,151.23,3,"The shirt was stained by mud.","nonsense",5.55347299576,0,"2_010","2","passive_s",1,0,1
13,161.68,161.68,4,"Pasta was waved by a fish.","nonsense",6.21838617325,1,"2_010","2","passive_ns",1,1,1
14,172.84,172.85,2,"A joke hugged the dragon.","nonsense",5.13455104828,1,"2_010","2","active_ns",1,1,1
15,183.02,183.04,3,"A phone was used by a doctor.","sense",4.53126001358,1,"2_010","2","passive_s",1,1,1
16,195.2,195.21,4,"A cup was cut by the pillow.","sense",5.11695504189,0,"2_010","2","passive_ns",1,0,1
17,212.76,212.77,2,"The snake asked for the father.","nonsense",5.3432700634,1,"2_010","2","active_ns",1,1,1
18,223.41,223.43,1,"A mouse chewed on the cheese.","sense",4.00919795036,1,"2_010","2","active_s",1,1,1
19,237.03,237.05,4,"Pie was raised by the letter.","sense",4.94735622406,0,"2_010","2","passive_ns",1,0,1
20,248.04,248.05,1,"The banker counted the money.","sense",3.31402897835,1,"2_010","2","active_s",1,1,1
21,258.46,258.47,3,"The lamp was bought by the sister.","sense",5.38068294525,1,"2_010","2","passive_s",1,1,1
22,274.9,274.91,1,"The boy cleared off the table.","sense",3.10281705856,1,"2_010","2","active_s",1,1,1
23,289.51,289.52,4,"Bread was scratched by a tray.","sense",5.77224707603,0,"2_010","2","passive_ns",1,0,1
24,303.52,303.53,2,"The ear dressed a student.","sense",5.65882396698,0,"2_010","2","active_ns",1,0,1
25,319.75,319.77,1,"The queen planted a flower.","sense",3.16038894653,1,"2_010","2","active_s",1,1,1
26,329.89,329.9,1,"A tiger scared the zebra.","sense",3.44706892967,1,"2_010","2","active_s",1,1,1
27,343.4,343.41,4,"A rope was sold by the frog.","nonsense",6.51121401787,1,"2_010","2","passive_ns",1,1,1
28,353.98,354,2,"The iron borrowed a teacher.","nonsense",7.84368991852,1,"2_010","2","active_ns",1,1,1
29,370.82,370.84,3,"Soup was served by a woman.","sense",3.87380099297,1,"2_010","2","passive_s",1,1,1
30,382.44,382.46,4,"The girl was told by a fork.","sense",6.65981817245,0,"2_010","2","passive_ns",1,0,1
31,392.48,392.5,2,"A basement won the family.","nonsense",6.48362803459,1,"2_010","2","active_ns",1,1,1
0,0,0.03,4,"The soup was caught by a ring.","nonsense",3.62486004829,1,"2_010","3","passive_ns",1,1,1
