"TrialNum","Onset","TrueOns","cond","Stim","Resp","RT","StopTrial","SSD","correct","subind","runnum","first","groupnum","group"
0,0,0.02,"1","1","4",0.852225,0,0,"1","ldrc_0_009","1",0,"1","A_first"
1,2,2.02,"1","1","4",0.584103,0,0,"1","ldrc_0_009","1",1,"1","A_first"
2,5,5.02,"1","1","4",0.533144,0,0,"1","ldrc_0_009","1",1,"1","A_first"
3,12,12,"0","0","1",0.437186,0,0,"1","ldrc_0_009","1",1,"1","A_first"
4,14,14.01,"3","1","4",0.414442,1,0.25,"3","ldrc_0_009","1",1,"1","A_first"
5,16,16.01,"3","1","1",0.446593,1,0.2,"2","ldrc_0_009","1",1,"1","A_first"
6,18,18.01,"2","0","1",0.467788,1,0.15,"3","ldrc_0_009","1",1,"1","A_first"
7,21,21.01,"0","0","1",0.512606,0,0,"1","ldrc_0_009","1",1,"1","A_first"
8,23,23.01,"1","1","4",0.351151,0,0,"1","ldrc_0_009","1",1,"1","A_first"
9,25,25.01,"0","0","1",0.469237,0,0,"1","ldrc_0_009","1",1,"1","A_first"
10,34,34.01,"0","0","1",0.516702,0,0,"1","ldrc_0_009","1",1,"1","A_first"
11,36,36.01,"1","1","4",0.57494,0,0,"1","ldrc_0_009","1",1,"1","A_first"
12,39,39.02,"1","1","4",0.517812,0,0,"1","ldrc_0_009","1",1,"1","A_first"
13,41,41.02,"0","0","1",0.353151,0,0,"1","ldrc_0_009","1",1,"1","A_first"
14,43,43.02,"0","0","1",0.59424,0,0,"1","ldrc_0_009","1",1,"1","A_first"
15,46,46,"0","0","1",0.539716,0,0,"1","ldrc_0_009","1",1,"1","A_first"
16,48,48,"1","1","4",0.50292,0,0,"1","ldrc_0_009","1",1,"1","A_first"
17,51,51,"1","1","4",0.496816,0,0,"1","ldrc_0_009","1",1,"1","A_first"
18,56,56.01,"3","1","0",0,1,0.1,"4","ldrc_0_009","1",1,"1","A_first"
19,58,58.01,"3","1","0",0,1,0.15,"4","ldrc_0_009","1",1,"1","A_first"
20,61,61.01,"0","0","1",0.468017,0,0,"1","ldrc_0_009","1",1,"1","A_first"
21,63,63.01,"3","1","0",0,1,0.2,"4","ldrc_0_009","1",1,"1","A_first"
22,66,66.01,"1","1","4",0.546205,0,0,"1","ldrc_0_009","1",1,"1","A_first"
23,69,69.01,"1","1","4",0.485977,0,0,"1","ldrc_0_009","1",1,"1","A_first"
24,71,71.01,"0","0","1",0.482038,0,0,"1","ldrc_0_009","1",1,"1","A_first"
25,73,73.01,"0","0","1",0.45163,0,0,"1","ldrc_0_009","1",1,"1","A_first"
26,75,75.01,"0","0","4",0.354747,0,0,"0","ldrc_0_009","1",1,"1","A_first"
27,77,77.01,"1","1","4",0.430071,0,0,"1","ldrc_0_009","1",1,"1","A_first"
28,79,79.02,"1","1","4",0.754207,0,0,"1","ldrc_0_009","1",1,"1","A_first"
29,81,81.02,"1","1","4",0.417568,0,0,"1","ldrc_0_009","1",1,"1","A_first"
30,83,83.02,"0","0","1",0.460749,0,0,"1","ldrc_0_009","1",1,"1","A_first"
31,86,86.02,"2","0","1",0.419581,1,0.25,"3","ldrc_0_009","1",1,"1","A_first"
32,88,88,"2","0","0",0,1,0.2,"4","ldrc_0_009","1",1,"1","A_first"
33,90,90,"3","1","4",0.466639,1,0.25,"3","ldrc_0_009","1",1,"1","A_first"
34,93,93,"1","1","4",0.486497,0,0,"1","ldrc_0_009","1",1,"1","A_first"
35,95,95.01,"1","1","4",0.465776,0,0,"1","ldrc_0_009","1",1,"1","A_first"
36,97,97.01,"1","1","4",0.660059,0,0,"1","ldrc_0_009","1",1,"1","A_first"
37,100,100.01,"0","0","1",0.542853,0,0,"1","ldrc_0_009","1",1,"1","A_first"
38,103,103.01,"0","0","1",0.640537,0,0,"1","ldrc_0_009","1",1,"1","A_first"
39,105,105.01,"0","0","1",0.629097,0,0,"1","ldrc_0_009","1",1,"1","A_first"
40,108,108.01,"0","0","1",0.446899,0,0,"1","ldrc_0_009","1",1,"1","A_first"
41,110,110.01,"0","0","1",0.392019,0,0,"1","ldrc_0_009","1",1,"1","A_first"
42,112,112.01,"2","0","1",0.438317,1,0.2,"3","ldrc_0_009","1",1,"1","A_first"
43,114,114.01,"3","1","0",0,1,0.15,"4","ldrc_0_009","1",1,"1","A_first"
44,116,116.01,"3","1","0",0,1,0.2,"4","ldrc_0_009","1",1,"1","A_first"
45,121,121.02,"1","1","4",0.553788,0,0,"1","ldrc_0_009","1",1,"1","A_first"
46,123,123.02,"1","1","4",0.619063,0,0,"1","ldrc_0_009","1",1,"1","A_first"
47,125,125.02,"1","1","4",0.705339,0,0,"1","ldrc_0_009","1",1,"1","A_first"
48,128,128,"0","0","1",0.434781,0,0,"1","ldrc_0_009","1",1,"1","A_first"
49,130,130,"3","1","4",0.481962,1,0.25,"3","ldrc_0_009","1",1,"1","A_first"
50,132,132,"0","0","1",0.667191,0,0,"1","ldrc_0_009","1",1,"1","A_first"
51,134,134,"1","1","4",0.666544,0,0,"1","ldrc_0_009","1",1,"1","A_first"
52,136,136.01,"0","0","1",0.45867,0,0,"1","ldrc_0_009","1",1,"1","A_first"
53,139,139.01,"2","0","0",0,1,0.2,"4","ldrc_0_009","1",1,"1","A_first"
54,144,144.01,"0","0","1",0.4157,0,0,"1","ldrc_0_009","1",1,"1","A_first"
55,147,147.01,"0","0","1",0.492555,0,0,"1","ldrc_0_009","1",1,"1","A_first"
56,149,149.01,"1","1","4",0.756771,0,0,"1","ldrc_0_009","1",1,"1","A_first"
57,153,153.01,"1","1","4",0.660245,0,0,"1","ldrc_0_009","1",1,"1","A_first"
58,155,155.01,"0","0","1",0.393459,0,0,"1","ldrc_0_009","1",1,"1","A_first"
59,157,157.01,"3","1","4",0.430769,1,0.25,"3","ldrc_0_009","1",1,"1","A_first"
60,163,163.02,"1","1","4",0.503441,0,0,"1","ldrc_0_009","1",1,"1","A_first"
61,165,165.02,"0","0","1",0.506734,0,0,"1","ldrc_0_009","1",1,"1","A_first"
62,167,167,"0","0","0",0,0,0,"5","ldrc_0_009","1",1,"1","A_first"
63,169,169,"1","1","1",0.468871,0,0,"0","ldrc_0_009","1",1,"1","A_first"
64,174,174,"0","0","1",0.474934,0,0,"1","ldrc_0_009","1",1,"1","A_first"
65,177,177.01,"0","0","1",0.55876,0,0,"1","ldrc_0_009","1",1,"1","A_first"
66,179,179.01,"1","1","4",0.49016,0,0,"1","ldrc_0_009","1",1,"1","A_first"
67,181,181.01,"0","0","1",0.566279,0,0,"1","ldrc_0_009","1",1,"1","A_first"
68,183,183.01,"1","1","4",0.667512,0,0,"1","ldrc_0_009","1",1,"1","A_first"
69,186,186.01,"3","1","0",0,1,0.2,"4","ldrc_0_009","1",1,"1","A_first"
70,188,188.01,"3","1","4",0.488549,1,0.25,"3","ldrc_0_009","1",1,"1","A_first"
71,192,192.01,"0","0","1",0.448988,0,0,"1","ldrc_0_009","1",1,"1","A_first"
72,195,195.01,"0","0","1",0.429953,0,0,"1","ldrc_0_009","1",1,"1","A_first"
73,197,197.01,"3","1","0",0,1,0.2,"4","ldrc_0_009","1",1,"1","A_first"
74,199,199.01,"1","1","4",0.476183,0,0,"1","ldrc_0_009","1",1,"1","A_first"
75,203,203.02,"0","0","1",0.669967,0,0,"1","ldrc_0_009","1",1,"1","A_first"
76,206,206.02,"0","0","4",0.354674,0,0,"0","ldrc_0_009","1",1,"1","A_first"
77,208,208,"1","1","4",0.939606,0,0,"1","ldrc_0_009","1",1,"1","A_first"
78,210,210,"0","0","1",0.490765,0,0,"1","ldrc_0_009","1",1,"1","A_first"
79,214,214,"3","1","4",0.406227,1,0.25,"3","ldrc_0_009","1",1,"1","A_first"
80,217,217.01,"2","0","1",0.322116,1,0.2,"3","ldrc_0_009","1",1,"1","A_first"
81,219,219.01,"0","0","1",0.837473,0,0,"1","ldrc_0_009","1",1,"1","A_first"
82,221,221.01,"1","1","4",0.536578,0,0,"1","ldrc_0_009","1",1,"1","A_first"
83,223,223.01,"0","0","1",0.515944,0,0,"1","ldrc_0_009","1",1,"1","A_first"
84,225,225.01,"0","0","1",0.622054,0,0,"1","ldrc_0_009","1",1,"1","A_first"
85,227,227.01,"1","1","4",0.458293,0,0,"1","ldrc_0_009","1",1,"1","A_first"
86,230,230.01,"1","1","4",0.581097,0,0,"1","ldrc_0_009","1",1,"1","A_first"
87,232,232.01,"1","1","4",0.585379,0,0,"1","ldrc_0_009","1",1,"1","A_first"
88,234,234.01,"0","0","1",0.5446,0,0,"1","ldrc_0_009","1",1,"1","A_first"
89,238,238.01,"0","0","1",0.507085,0,0,"1","ldrc_0_009","1",1,"1","A_first"
90,240,240.01,"0","0","1",0.527319,0,0,"1","ldrc_0_009","1",1,"1","A_first"
91,242,242.02,"0","0","1",0.5996,0,0,"1","ldrc_0_009","1",1,"1","A_first"
92,249,249.02,"1","1","4",0.459935,0,0,"1","ldrc_0_009","1",1,"1","A_first"
93,253,253,"1","1","1",0.389042,0,0,"0","ldrc_0_009","1",1,"1","A_first"
94,257,257,"2","0","0",0,1,0.15,"4","ldrc_0_009","1",1,"1","A_first"
95,259,259.01,"3","1","0",0,1,0.2,"4","ldrc_0_009","1",1,"1","A_first"
96,261,261.01,"2","0","1",0.447086,1,0.25,"3","ldrc_0_009","1",1,"1","A_first"
97,265,265.01,"0","0","4",0.910565,0,0,"0","ldrc_0_009","1",1,"1","A_first"
98,271,271.01,"2","0","0",0,1,0.2,"4","ldrc_0_009","1",1,"1","A_first"
99,276,276.01,"2","0","0",0,1,0.25,"4","ldrc_0_009","1",1,"1","A_first"
100,278,278.01,"2","0","0",0,1,0.3,"4","ldrc_0_009","1",1,"1","A_first"
101,280,280.01,"1","1","4",0.482716,0,0,"1","ldrc_0_009","1",1,"1","A_first"
102,282,282.02,"1","1","4",0.44596,0,0,"1","ldrc_0_009","1",1,"1","A_first"
103,284,284.02,"0","0","1",0.621256,0,0,"1","ldrc_0_009","1",1,"1","A_first"
104,286,286.02,"1","1","4",0.711413,0,0,"1","ldrc_0_009","1",1,"1","A_first"
105,288,288.02,"1","1","4",0.50366,0,0,"1","ldrc_0_009","1",1,"1","A_first"
106,291,291,"2","0","0",0,1,0.35,"4","ldrc_0_009","1",1,"1","A_first"
107,295,295,"0","0","1",0.668506,0,0,"1","ldrc_0_009","1",1,"1","A_first"
108,298,298.01,"2","0","1",0.530553,1,0.4,"3","ldrc_0_009","1",1,"1","A_first"
109,300,300.01,"2","0","1",0.393722,1,0.35,"3","ldrc_0_009","1",1,"1","A_first"
110,302,302.01,"0","0","1",0.449927,0,0,"1","ldrc_0_009","1",1,"1","A_first"
111,305,305.01,"1","1","4",0.489745,0,0,"1","ldrc_0_009","1",1,"1","A_first"
112,307,307.01,"1","1","4",0.487118,0,0,"1","ldrc_0_009","1",1,"1","A_first"
113,309,309.01,"0","0","1",0.430237,0,0,"1","ldrc_0_009","1",1,"1","A_first"
114,312,312.01,"3","1","4",0.480173,1,0.3,"3","ldrc_0_009","1",1,"1","A_first"
115,317,317.01,"0","0","1",0.43335,0,0,"1","ldrc_0_009","1",1,"1","A_first"
116,319,319.01,"1","1","4",0.70858,0,0,"1","ldrc_0_009","1",1,"1","A_first"
117,321,321.01,"0","0","1",0.653728,0,0,"1","ldrc_0_009","1",1,"1","A_first"
118,323,323.02,"0","0","1",0.568102,0,0,"1","ldrc_0_009","1",1,"1","A_first"
119,325,325.02,"1","1","4",0.33529,0,0,"1","ldrc_0_009","1",1,"1","A_first"
120,329,329.02,"2","0","1",0.44677,1,0.25,"3","ldrc_0_009","1",1,"1","A_first"
121,331,331,"1","1","4",0.496683,0,0,"1","ldrc_0_009","1",1,"1","A_first"
122,335,335,"1","1","4",0.534872,0,0,"1","ldrc_0_009","1",1,"1","A_first"
123,337,337,"1","1","4",0.450308,0,0,"1","ldrc_0_009","1",1,"1","A_first"
124,339,339.01,"1","1","4",0.612602,0,0,"1","ldrc_0_009","1",1,"1","A_first"
125,341,341.01,"1","1","4",0.840892,0,0,"1","ldrc_0_009","1",1,"1","A_first"
126,343,343.01,"1","1","4",0.358025,0,0,"1","ldrc_0_009","1",1,"1","A_first"
127,348,348.01,"2","0","1",0.484016,1,0.2,"3","ldrc_0_009","1",1,"1","A_first"
0,0,0.02,"0","0","1",0.603099,0,0,"1","ldrc_0_009","2",1,"1","A_first"
1,2,2.02,"0","0","1",0.482131,0,0,"1","ldrc_0_009","2",1,"1","A_first"
2,6,6,"0","0","1",0.472151,0,0,"1","ldrc_0_009","2",1,"1","A_first"
3,8,8,"1","1","4",0.363725,0,0,"1","ldrc_0_009","2",1,"1","A_first"
4,10,10,"1","1","4",0.501971,0,0,"1","ldrc_0_009","2",1,"1","A_first"
5,12,12,"1","1","4",0.75421,0,0,"1","ldrc_0_009","2",1,"1","A_first"
6,14,14.01,"1","1","4",0.405346,0,0,"1","ldrc_0_009","2",1,"1","A_first"
7,16,16.01,"1","1","4",0.473722,0,0,"1","ldrc_0_009","2",1,"1","A_first"
8,19,19.01,"1","1","4",0.461482,0,0,"1","ldrc_0_009","2",1,"1","A_first"
9,21,21.01,"0","0","1",0.435803,0,0,"1","ldrc_0_009","2",1,"1","A_first"
10,24,24.01,"2","0","1",0.527704,1,0.25,"3","ldrc_0_009","2",1,"1","A_first"
11,29,29.01,"3","1","4",0.471794,1,0.2,"3","ldrc_0_009","2",1,"1","A_first"
12,31,31.01,"0","0","1",0.694052,0,0,"1","ldrc_0_009","2",1,"1","A_first"
13,33,33.01,"1","1","4",0.431233,0,0,"1","ldrc_0_009","2",1,"1","A_first"
14,35,35.01,"3","1","0",0,1,0.15,"4","ldrc_0_009","2",1,"1","A_first"
15,38,38.02,"1","1","4",0.536406,0,0,"1","ldrc_0_009","2",1,"1","A_first"
16,40,40.02,"1","1","4",0.655462,0,0,"1","ldrc_0_009","2",1,"1","A_first"
17,42,42.02,"3","1","0",0,1,0.2,"4","ldrc_0_009","2",1,"1","A_first"
18,44,44.02,"1","1","4",0.498988,0,0,"1","ldrc_0_009","2",1,"1","A_first"
19,46,46,"1","1","4",0.430656,0,0,"1","ldrc_0_009","2",1,"1","A_first"
20,52,52,"1","1","4",0.507585,0,0,"1","ldrc_0_009","2",1,"1","A_first"
21,55,55.01,"1","1","4",0.49742,0,0,"1","ldrc_0_009","2",1,"1","A_first"
22,57,57.01,"1","1","4",0.583696,0,0,"1","ldrc_0_009","2",1,"1","A_first"
23,59,59.01,"0","0","4",0.747001,0,0,"0","ldrc_0_009","2",1,"1","A_first"
24,61,61.01,"0","0","1",0.874285,0,0,"1","ldrc_0_009","2",1,"1","A_first"
25,63,63.01,"1","1","4",0.580211,0,0,"1","ldrc_0_009","2",1,"1","A_first"
26,65,65.01,"0","0","1",0.913599,0,0,"1","ldrc_0_009","2",1,"1","A_first"
27,68,68.01,"1","1","4",0.487474,0,0,"1","ldrc_0_009","2",1,"1","A_first"
28,71,71.01,"0","0","1",0.465328,0,0,"1","ldrc_0_009","2",1,"1","A_first"
29,73,73.01,"1","1","4",0.484624,0,0,"1","ldrc_0_009","2",1,"1","A_first"
30,80,80.02,"2","0","0",0,1,0.25,"4","ldrc_0_009","2",1,"1","A_first"
31,87,87.02,"2","0","0",0,1,0.3,"4","ldrc_0_009","2",1,"1","A_first"
32,89,89,"1","1","4",0.628286,0,0,"1","ldrc_0_009","2",1,"1","A_first"
33,91,91,"3","1","4",0.484451,1,0.35,"3","ldrc_0_009","2",1,"1","A_first"
34,94,94,"2","0","0",0,1,0.3,"4","ldrc_0_009","2",1,"1","A_first"
35,96,96.01,"0","0","1",0.547433,0,0,"1","ldrc_0_009","2",1,"1","A_first"
36,98,98.01,"1","1","4",0.462523,0,0,"1","ldrc_0_009","2",1,"1","A_first"
37,100,100.01,"0","0","1",0.699076,0,0,"1","ldrc_0_009","2",1,"1","A_first"
38,103,103.01,"0","0","1",0.602015,0,0,"1","ldrc_0_009","2",1,"1","A_first"
39,106,106.01,"2","0","1",0.460708,1,0.35,"3","ldrc_0_009","2",1,"1","A_first"
40,108,108.01,"0","0","1",0.50589,0,0,"1","ldrc_0_009","2",1,"1","A_first"
41,111,111.01,"0","0","1",0.491704,0,0,"1","ldrc_0_009","2",1,"1","A_first"
42,113,113.01,"3","1","4",0.501954,1,0.3,"3","ldrc_0_009","2",1,"1","A_first"
43,115,115.01,"2","0","0",0,1,0.25,"4","ldrc_0_009","2",1,"1","A_first"
44,118,118.01,"3","1","0",0,1,0.3,"4","ldrc_0_009","2",1,"1","A_first"
45,120,120.02,"1","1","4",0.59026,0,0,"1","ldrc_0_009","2",1,"1","A_first"
46,124,124.02,"1","1","4",0.597114,0,0,"1","ldrc_0_009","2",1,"1","A_first"
47,126,126.02,"0","0","1",0.463975,0,0,"1","ldrc_0_009","2",1,"1","A_first"
48,128,128,"0","0","0",0,0,0,"5","ldrc_0_009","2",1,"1","A_first"
49,130,130,"2","0","1",0.499177,1,0.35,"3","ldrc_0_009","2",1,"1","A_first"
50,132,132,"3","1","4",0.524214,1,0.3,"3","ldrc_0_009","2",1,"1","A_first"
51,134,134,"3","1","0",0,1,0.25,"4","ldrc_0_009","2",1,"1","A_first"
52,136,136.01,"0","0","1",0.51478,0,0,"1","ldrc_0_009","2",1,"1","A_first"
53,139,139.01,"1","1","4",0.626758,0,0,"1","ldrc_0_009","2",1,"1","A_first"
54,142,142.01,"0","0","1",0.449561,0,0,"1","ldrc_0_009","2",1,"1","A_first"
55,144,144.01,"1","1","4",0.477888,0,0,"1","ldrc_0_009","2",1,"1","A_first"
56,146,146.01,"1","1","4",0.669944,0,0,"1","ldrc_0_009","2",1,"1","A_first"
57,148,148.01,"0","0","1",0.480193,0,0,"1","ldrc_0_009","2",1,"1","A_first"
58,150,150.01,"1","1","4",0.438561,0,0,"1","ldrc_0_009","2",1,"1","A_first"
59,152,152.01,"0","0","1",0.532686,0,0,"1","ldrc_0_009","2",1,"1","A_first"
60,154,154.01,"0","0","1",0.540973,0,0,"1","ldrc_0_009","2",1,"1","A_first"
61,158,158.01,"3","1","0",0,1,0.3,"4","ldrc_0_009","2",1,"1","A_first"
62,161,161.02,"2","0","1",0.551422,1,0.35,"3","ldrc_0_009","2",1,"1","A_first"
63,163,163.02,"2","0","0",0,1,0.3,"4","ldrc_0_009","2",1,"1","A_first"
64,171,171.02,"0","0","1",0.896204,0,0,"1","ldrc_0_009","2",1,"1","A_first"
65,176,176,"1","1","4",0.956266,0,0,"1","ldrc_0_009","2",1,"1","A_first"
66,179,179.01,"0","0","1",0.425107,0,0,"1","ldrc_0_009","2",1,"1","A_first"
67,184,184.01,"0","0","1",0.525139,0,0,"1","ldrc_0_009","2",1,"1","A_first"
68,186,186.01,"0","0","1",0.711372,0,0,"1","ldrc_0_009","2",1,"1","A_first"
69,190,190.01,"0","0","1",0.459798,0,0,"1","ldrc_0_009","2",1,"1","A_first"
70,192,192.01,"1","1","4",0.83607,0,0,"1","ldrc_0_009","2",1,"1","A_first"
71,194,194.01,"1","1","4",0.423137,0,0,"1","ldrc_0_009","2",1,"1","A_first"
72,196,196.01,"1","1","4",0.526569,0,0,"1","ldrc_0_009","2",1,"1","A_first"
73,199,199.01,"2","0","1",0.444475,1,0.35,"3","ldrc_0_009","2",1,"1","A_first"
74,201,201.02,"3","1","4",0.360641,1,0.3,"3","ldrc_0_009","2",1,"1","A_first"
75,204,204.02,"2","0","1",0.528509,1,0.25,"3","ldrc_0_009","2",1,"1","A_first"
76,207,207.02,"1","1","4",0.588375,0,0,"1","ldrc_0_009","2",1,"1","A_first"
77,211,211,"1","1","4",0.487618,0,0,"1","ldrc_0_009","2",1,"1","A_first"
78,214,214,"0","0","1",0.563346,0,0,"1","ldrc_0_009","2",1,"1","A_first"
79,216,216,"0","0","1",0.580561,0,0,"1","ldrc_0_009","2",1,"1","A_first"
80,219,219.01,"0","0","1",0.525464,0,0,"1","ldrc_0_009","2",1,"1","A_first"
81,221,221.01,"0","0","1",0.652791,0,0,"1","ldrc_0_009","2",1,"1","A_first"
82,225,225.01,"3","1","0",0,1,0.2,"4","ldrc_0_009","2",1,"1","A_first"
83,227,227.01,"1","1","4",0.776414,0,0,"1","ldrc_0_009","2",1,"1","A_first"
84,229,229.01,"3","1","0",0,1,0.25,"4","ldrc_0_009","2",1,"1","A_first"
85,231,231.01,"2","0","1",0.426953,1,0.3,"3","ldrc_0_009","2",1,"1","A_first"
86,233,233.01,"3","1","0",0,1,0.25,"4","ldrc_0_009","2",1,"1","A_first"
87,238,238.01,"1","1","4",0.590224,0,0,"1","ldrc_0_009","2",1,"1","A_first"
88,240,240.01,"1","1","4",0.5662,0,0,"1","ldrc_0_009","2",1,"1","A_first"
89,244,244.02,"1","1","4",0.486877,0,0,"1","ldrc_0_009","2",1,"1","A_first"
90,246,246.02,"0","0","1",0.455979,0,0,"1","ldrc_0_009","2",1,"1","A_first"
91,248,248.02,"1","1","4",0.387362,0,0,"1","ldrc_0_009","2",1,"1","A_first"
92,250,250,"1","1","4",0.46522,0,0,"1","ldrc_0_009","2",1,"1","A_first"
93,252,252,"1","1","4",0.416426,0,0,"1","ldrc_0_009","2",1,"1","A_first"
94,255,255,"2","0","1",0.533404,1,0.3,"3","ldrc_0_009","2",1,"1","A_first"
95,257,257.01,"1","1","4",0.45062,0,0,"1","ldrc_0_009","2",1,"1","A_first"
96,259,259.01,"0","0","1",0.525949,0,0,"1","ldrc_0_009","2",1,"1","A_first"
97,261,261.01,"0","0","1",0.601056,0,0,"1","ldrc_0_009","2",1,"1","A_first"
98,263,263.01,"3","1","0",0,1,0.25,"4","ldrc_0_009","2",1,"1","A_first"
99,265,265.01,"0","0","1",0.350623,0,0,"1","ldrc_0_009","2",1,"1","A_first"
100,267,267.01,"1","1","4",0.451845,0,0,"1","ldrc_0_009","2",1,"1","A_first"
101,269,269.01,"0","0","1",0.510089,0,0,"1","ldrc_0_009","2",1,"1","A_first"
102,274,274.01,"3","1","4",0.4563,1,0.3,"3","ldrc_0_009","2",1,"1","A_first"
103,276,276.01,"2","0","1",0.058283,1,0.25,"3","ldrc_0_009","2",1,"1","A_first"
104,279,279.01,"0","0","1",0.589316,0,0,"1","ldrc_0_009","2",1,"1","A_first"
105,281,281.01,"0","0","1",0.571568,0,0,"1","ldrc_0_009","2",1,"1","A_first"
106,286,286.02,"1","1","4",0.463543,0,0,"1","ldrc_0_009","2",1,"1","A_first"
107,290,290.02,"1","1","4",0.515007,0,0,"1","ldrc_0_009","2",1,"1","A_first"
108,293,293,"0","0","1",0.552547,0,0,"1","ldrc_0_009","2",1,"1","A_first"
109,295,295,"0","0","1",0.653748,0,0,"1","ldrc_0_009","2",1,"1","A_first"
110,297,297,"1","1","4",0.522093,0,0,"1","ldrc_0_009","2",1,"1","A_first"
111,300,300.01,"0","0","1",0.591914,0,0,"1","ldrc_0_009","2",1,"1","A_first"
112,302,302.01,"0","0","1",0.901114,0,0,"1","ldrc_0_009","2",1,"1","A_first"
113,308,308.01,"3","1","0",0,1,0.2,"4","ldrc_0_009","2",1,"1","A_first"
114,310,310.01,"0","0","1",0.554041,0,0,"1","ldrc_0_009","2",1,"1","A_first"
115,312,312.01,"2","0","0",0,1,0.25,"4","ldrc_0_009","2",1,"1","A_first"
116,314,314.01,"0","0","1",0.868511,0,0,"1","ldrc_0_009","2",1,"1","A_first"
117,316,316.01,"0","0","1",0.68573,0,0,"1","ldrc_0_009","2",1,"1","A_first"
118,318,318.01,"0","0","1",0.92483,0,0,"1","ldrc_0_009","2",1,"1","A_first"
119,324,324.02,"1","1","4",0.735474,0,0,"1","ldrc_0_009","2",1,"1","A_first"
120,326,326.02,"1","1","0",0,0,0,"5","ldrc_0_009","2",1,"1","A_first"
121,329,329.02,"0","0","1",0.399843,0,0,"1","ldrc_0_009","2",1,"1","A_first"
122,331,331,"0","0","1",0.586591,0,0,"1","ldrc_0_009","2",1,"1","A_first"
123,333,333,"1","1","4",0.373762,0,0,"1","ldrc_0_009","2",1,"1","A_first"
124,337,337,"1","1","4",0.525318,0,0,"1","ldrc_0_009","2",1,"1","A_first"
125,339,339.01,"2","0","1",0.590877,1,0.3,"3","ldrc_0_009","2",1,"1","A_first"
126,344,344.01,"1","1","4",0.723753,0,0,"1","ldrc_0_009","2",1,"1","A_first"
127,346,346.01,"0","0","1",0.825742,0,0,"1","ldrc_0_009","2",1,"1","A_first"
0,0,0.02,"1","1","0",0,0,0,"5","ldrc_0_018","1",1,"1","A_first"
1,2,2.02,"1","1","1",0.362277,0,0,"0","ldrc_0_018","1",1,"1","A_first"
2,5,5.02,"1","1","4",0.386158,0,0,"1","ldrc_0_018","1",1,"1","A_first"
3,12,12,"0","0","1",0.441177,0,0,"1","ldrc_0_018","1",1,"1","A_first"
4,14,14.01,"3","1","4",0.426486,1,0.25,"3","ldrc_0_018","1",1,"1","A_first"
5,16,16.01,"3","1","4",0.558631,1,0.2,"3","ldrc_0_018","1",1,"1","A_first"
6,18,18.01,"2","0","1",0.485038,1,0.15,"3","ldrc_0_018","1",1,"1","A_first"
7,21,21.01,"0","0","1",0.570834,0,0,"1","ldrc_0_018","1",1,"1","A_first"
8,23,23.01,"1","1","4",0.560981,0,0,"1","ldrc_0_018","1",1,"1","A_first"
9,25,25.01,"0","0","1",0.905299,0,0,"1","ldrc_0_018","1",1,"1","A_first"
10,34,34.01,"0","0","1",0.636712,0,0,"1","ldrc_0_018","1",1,"1","A_first"
11,36,36.01,"1","1","4",0.775054,0,0,"1","ldrc_0_018","1",1,"1","A_first"
12,39,39.02,"1","1","4",0.500777,0,0,"1","ldrc_0_018","1",1,"1","A_first"
13,41,41.02,"0","0","1",0.422073,0,0,"1","ldrc_0_018","1",1,"1","A_first"
14,43,43.02,"0","0","1",0.534317,0,0,"1","ldrc_0_018","1",1,"1","A_first"
15,46,46,"0","0","1",0.574749,0,0,"1","ldrc_0_018","1",1,"1","A_first"
16,48,48,"1","1","4",0.492997,0,0,"1","ldrc_0_018","1",1,"1","A_first"
17,51,51,"1","1","4",0.489898,0,0,"1","ldrc_0_018","1",1,"1","A_first"
18,56,56.01,"3","1","0",0,1,0.1,"4","ldrc_0_018","1",1,"1","A_first"
19,58,58.01,"3","1","0",0,1,0.15,"4","ldrc_0_018","1",1,"1","A_first"
20,61,61.01,"0","0","1",0.549989,0,0,"1","ldrc_0_018","1",1,"1","A_first"
21,63,63.01,"3","1","0",0,1,0.2,"4","ldrc_0_018","1",1,"1","A_first"
22,66,66.01,"1","1","4",0.447204,0,0,"1","ldrc_0_018","1",1,"1","A_first"
23,69,69.01,"1","1","4",0.515086,0,0,"1","ldrc_0_018","1",1,"1","A_first"
24,71,71.01,"0","0","1",0.73116,0,0,"1","ldrc_0_018","1",1,"1","A_first"
25,73,73.01,"0","0","1",0.631553,0,0,"1","ldrc_0_018","1",1,"1","A_first"
26,75,75.01,"0","0","1",0.701594,0,0,"1","ldrc_0_018","1",1,"1","A_first"
27,77,77.01,"1","1","4",0.544909,0,0,"1","ldrc_0_018","1",1,"1","A_first"
28,79,79.02,"1","1","4",0.44439,0,0,"1","ldrc_0_018","1",1,"1","A_first"
29,81,81.02,"1","1","4",0.470434,0,0,"1","ldrc_0_018","1",1,"1","A_first"
30,83,83.02,"0","0","1",0.573695,0,0,"1","ldrc_0_018","1",1,"1","A_first"
31,86,86,"2","0","1",0.538179,1,0.25,"3","ldrc_0_018","1",1,"1","A_first"
32,88,88,"2","0","0",0,1,0.2,"4","ldrc_0_018","1",1,"1","A_first"
33,90,90,"3","1","4",0.45565,1,0.25,"3","ldrc_0_018","1",1,"1","A_first"
34,93,93,"1","1","4",0.551502,0,0,"1","ldrc_0_018","1",1,"1","A_first"
35,95,95.01,"1","1","4",0.495047,0,0,"1","ldrc_0_018","1",1,"1","A_first"
36,97,97.01,"1","1","4",0.500962,0,0,"1","ldrc_0_018","1",1,"1","A_first"
37,100,100.01,"0","0","1",0.602822,0,0,"1","ldrc_0_018","1",1,"1","A_first"
38,103,103.01,"0","0","1",0.91072,0,0,"1","ldrc_0_018","1",1,"1","A_first"
39,105,105.01,"0","0","1",0.559903,0,0,"1","ldrc_0_018","1",1,"1","A_first"
40,108,108.01,"0","0","1",0.577833,0,0,"1","ldrc_0_018","1",1,"1","A_first"
41,110,110.01,"0","0","1",0.913087,0,0,"1","ldrc_0_018","1",1,"1","A_first"
42,112,112.01,"2","0","1",0.346257,1,0.2,"3","ldrc_0_018","1",1,"1","A_first"
43,114,114.01,"3","1","4",0.559546,1,0.15,"3","ldrc_0_018","1",1,"1","A_first"
44,116,116.01,"3","1","0",0,1,0.1,"4","ldrc_0_018","1",1,"1","A_first"
45,121,121.02,"1","1","4",0.47885,0,0,"1","ldrc_0_018","1",1,"1","A_first"
46,123,123.02,"1","1","4",0.495071,0,0,"1","ldrc_0_018","1",1,"1","A_first"
47,125,125.02,"1","1","4",0.388373,0,0,"1","ldrc_0_018","1",1,"1","A_first"
48,128,128,"0","0","1",0.730745,0,0,"1","ldrc_0_018","1",1,"1","A_first"
49,130,130,"3","1","0",0,1,0.15,"4","ldrc_0_018","1",1,"1","A_first"
50,132,132,"0","0","1",0.501224,0,0,"1","ldrc_0_018","1",1,"1","A_first"
51,134,134,"1","1","4",0.49354,0,0,"1","ldrc_0_018","1",1,"1","A_first"
52,136,136.01,"0","0","1",0.686796,0,0,"1","ldrc_0_018","1",1,"1","A_first"
53,139,139.01,"2","0","0",0,1,0.2,"4","ldrc_0_018","1",1,"1","A_first"
54,144,144.01,"0","0","1",0.561763,0,0,"1","ldrc_0_018","1",1,"1","A_first"
55,147,147.01,"0","0","1",0.778735,0,0,"1","ldrc_0_018","1",1,"1","A_first"
56,149,149.01,"1","1","4",0.657794,0,0,"1","ldrc_0_018","1",1,"1","A_first"
57,153,153.01,"1","1","4",0.544353,0,0,"1","ldrc_0_018","1",1,"1","A_first"
58,155,155.01,"0","0","1",0.57973,0,0,"1","ldrc_0_018","1",1,"1","A_first"
59,157,157.01,"3","1","4",0.432815,1,0.25,"3","ldrc_0_018","1",1,"1","A_first"
60,163,163.02,"1","1","4",0.706483,0,0,"1","ldrc_0_018","1",1,"1","A_first"
61,165,165.02,"0","0","1",0.657696,0,0,"1","ldrc_0_018","1",1,"1","A_first"
62,167,167,"0","0","1",0.602581,0,0,"1","ldrc_0_018","1",1,"1","A_first"
63,169,169,"1","1","4",0.613898,0,0,"1","ldrc_0_018","1",1,"1","A_first"
64,174,174,"0","0","1",0.421945,0,0,"1","ldrc_0_018","1",1,"1","A_first"
65,177,177.01,"0","0","1",0.555898,0,0,"1","ldrc_0_018","1",1,"1","A_first"
66,179,179.01,"1","1","4",0.442982,0,0,"1","ldrc_0_018","1",1,"1","A_first"
67,181,181.01,"0","0","1",0.752504,0,0,"1","ldrc_0_018","1",1,"1","A_first"
68,183,183.01,"1","1","4",0.472451,0,0,"1","ldrc_0_018","1",1,"1","A_first"
69,186,186.01,"3","1","0",0,1,0.2,"4","ldrc_0_018","1",1,"1","A_first"
70,188,188.01,"3","1","0",0,1,0.25,"4","ldrc_0_018","1",1,"1","A_first"
71,192,192.01,"0","0","0",0,0,0,"5","ldrc_0_018","1",1,"1","A_first"
72,195,195.01,"0","0","1",0.593905,0,0,"1","ldrc_0_018","1",1,"1","A_first"
73,197,197.01,"3","1","4",0.467105,1,0.3,"3","ldrc_0_018","1",1,"1","A_first"
74,199,199.01,"1","1","4",0.41452,0,0,"1","ldrc_0_018","1",1,"1","A_first"
75,203,203.02,"0","0","1",0.399819,0,0,"1","ldrc_0_018","1",1,"1","A_first"
76,206,206.02,"0","0","1",0.965715,0,0,"1","ldrc_0_018","1",1,"1","A_first"
77,208,208,"1","1","4",0.437548,0,0,"1","ldrc_0_018","1",1,"1","A_first"
78,210,210,"0","0","1",0.661772,0,0,"1","ldrc_0_018","1",1,"1","A_first"
79,214,214,"3","1","4",0.408241,1,0.25,"3","ldrc_0_018","1",1,"1","A_first"
80,217,217.01,"2","0","0",0,1,0.2,"4","ldrc_0_018","1",1,"1","A_first"
81,219,219.01,"0","0","1",0.746437,0,0,"1","ldrc_0_018","1",1,"1","A_first"
82,221,221.01,"1","1","4",0.672549,0,0,"1","ldrc_0_018","1",1,"1","A_first"
83,223,223.01,"0","0","1",0.538835,0,0,"1","ldrc_0_018","1",1,"1","A_first"
84,225,225.01,"0","0","1",0.573133,0,0,"1","ldrc_0_018","1",1,"1","A_first"
85,227,227.01,"1","1","4",0.608309,0,0,"1","ldrc_0_018","1",1,"1","A_first"
86,230,230.01,"1","1","4",0.676227,0,0,"1","ldrc_0_018","1",1,"1","A_first"
87,232,232.01,"1","1","4",0.640404,0,0,"1","ldrc_0_018","1",1,"1","A_first"
88,234,234.01,"0","0","1",0.830703,0,0,"1","ldrc_0_018","1",1,"1","A_first"
89,238,238.01,"0","0","1",0.575102,0,0,"1","ldrc_0_018","1",1,"1","A_first"
90,240,240.01,"0","0","1",0.696273,0,0,"1","ldrc_0_018","1",1,"1","A_first"
91,242,242.02,"0","0","1",0.514595,0,0,"1","ldrc_0_018","1",1,"1","A_first"
92,249,249.02,"1","1","4",0.682847,0,0,"1","ldrc_0_018","1",1,"1","A_first"
93,253,253,"1","1","4",0.514008,0,0,"1","ldrc_0_018","1",1,"1","A_first"
94,257,257,"2","0","0",0,1,0.25,"4","ldrc_0_018","1",1,"1","A_first"
95,259,259.01,"3","1","4",0.599172,1,0.3,"3","ldrc_0_018","1",1,"1","A_first"
96,261,261.01,"2","0","1",0.605114,1,0.25,"3","ldrc_0_018","1",1,"1","A_first"
97,265,265.01,"0","0","1",0.558281,0,0,"1","ldrc_0_018","1",1,"1","A_first"
98,271,271.01,"2","0","0",0,1,0.2,"4","ldrc_0_018","1",1,"1","A_first"
99,276,276.01,"2","0","1",0.69421,1,0.25,"3","ldrc_0_018","1",1,"1","A_first"
100,278,278.01,"2","0","0",0,1,0.2,"4","ldrc_0_018","1",1,"1","A_first"
101,280,280.01,"1","1","4",0.80171,0,0,"1","ldrc_0_018","1",1,"1","A_first"
102,282,282.02,"1","1","4",0.764003,0,0,"1","ldrc_0_018","1",1,"1","A_first"
103,284,284.02,"0","0","1",0.48416,0,0,"1","ldrc_0_018","1",1,"1","A_first"
104,286,286.02,"1","1","4",0.655492,0,0,"1","ldrc_0_018","1",1,"1","A_first"
105,288,288.02,"1","1","4",0.617711,0,0,"1","ldrc_0_018","1",1,"1","A_first"
106,291,291,"2","0","0",0,1,0.25,"4","ldrc_0_018","1",1,"1","A_first"
107,295,295,"0","0","1",0.982746,0,0,"1","ldrc_0_018","1",1,"1","A_first"
108,298,298.01,"2","0","0",0,1,0.3,"4","ldrc_0_018","1",1,"1","A_first"
109,300,300.01,"2","0","1",0.578833,1,0.35,"3","ldrc_0_018","1",1,"1","A_first"
110,302,302.01,"0","0","1",0.640909,0,0,"1","ldrc_0_018","1",1,"1","A_first"
111,305,305.01,"1","1","4",0.45885,0,0,"1","ldrc_0_018","1",1,"1","A_first"
112,307,307.01,"1","1","4",0.760081,0,0,"1","ldrc_0_018","1",1,"1","A_first"
113,309,309.01,"0","0","4",0.405376,0,0,"0","ldrc_0_018","1",1,"1","A_first"
114,312,312.01,"3","1","4",0.459194,1,0.3,"3","ldrc_0_018","1",1,"1","A_first"
115,317,317.01,"0","0","1",0.925307,0,0,"1","ldrc_0_018","1",1,"1","A_first"
116,319,319.01,"1","1","4",0.746699,0,0,"1","ldrc_0_018","1",1,"1","A_first"
117,321,321.01,"0","0","1",0.75488,0,0,"1","ldrc_0_018","1",1,"1","A_first"
118,323,323.02,"0","0","1",0.861963,0,0,"1","ldrc_0_018","1",1,"1","A_first"
119,325,325.02,"1","1","4",0.543204,0,0,"1","ldrc_0_018","1",1,"1","A_first"
120,329,329.02,"2","0","0",0,1,0.25,"4","ldrc_0_018","1",1,"1","A_first"
121,331,331,"1","1","4",0.623624,0,0,"1","ldrc_0_018","1",1,"1","A_first"
122,335,335,"1","1","4",0.641142,0,0,"1","ldrc_0_018","1",1,"1","A_first"
123,337,337,"1","1","4",0.562269,0,0,"1","ldrc_0_018","1",1,"1","A_first"
124,339,339.01,"1","1","4",0.755601,0,0,"1","ldrc_0_018","1",1,"1","A_first"
125,341,341.01,"1","1","4",0.945859,0,0,"1","ldrc_0_018","1",1,"1","A_first"
126,343,343.01,"1","1","4",0.399979,0,0,"1","ldrc_0_018","1",1,"1","A_first"
127,348,348.01,"2","0","0",0,1,0.3,"4","ldrc_0_018","1",1,"1","A_first"
0,0,0.02,"0","0","1",0.849388,0,0,"1","ldrc_0_018","2",1,"1","A_first"
1,2,2.02,"0","0","1",0.57349,0,0,"1","ldrc_0_018","2",1,"1","A_first"
2,6,6.02,"0","0","1",0.535909,0,0,"1","ldrc_0_018","2",1,"1","A_first"
3,8,8,"1","1","4",0.487873,0,0,"1","ldrc_0_018","2",1,"1","A_first"
4,10,10,"1","1","4",0.396175,0,0,"1","ldrc_0_018","2",1,"1","A_first"
5,12,12,"1","1","4",0.782358,0,0,"1","ldrc_0_018","2",1,"1","A_first"
6,14,14.01,"1","1","4",0.580637,0,0,"1","ldrc_0_018","2",1,"1","A_first"
7,16,16.01,"1","1","4",0.566968,0,0,"1","ldrc_0_018","2",1,"1","A_first"
8,19,19.01,"1","1","4",0.526672,0,0,"1","ldrc_0_018","2",1,"1","A_first"
9,21,21.01,"0","0","1",0.529914,0,0,"1","ldrc_0_018","2",1,"1","A_first"
10,24,24.01,"2","0","1",0.476915,1,0.25,"3","ldrc_0_018","2",1,"1","A_first"
11,29,29.01,"3","1","4",0.520919,1,0.2,"3","ldrc_0_018","2",1,"1","A_first"
12,31,31.01,"0","0","1",0.708151,0,0,"1","ldrc_0_018","2",1,"1","A_first"
13,33,33.01,"1","1","4",0.387402,0,0,"1","ldrc_0_018","2",1,"1","A_first"
14,35,35.01,"3","1","0",0,1,0.15,"4","ldrc_0_018","2",1,"1","A_first"
15,38,38.02,"1","1","4",0.628379,0,0,"1","ldrc_0_018","2",1,"1","A_first"
16,40,40.02,"1","1","4",0.525651,0,0,"1","ldrc_0_018","2",1,"1","A_first"
17,42,42.02,"3","1","4",0.414907,1,0.2,"3","ldrc_0_018","2",1,"1","A_first"
18,44,44.02,"1","1","4",0.542895,0,0,"1","ldrc_0_018","2",1,"1","A_first"
19,46,46,"1","1","4",0.439963,0,0,"1","ldrc_0_018","2",1,"1","A_first"
20,52,52,"1","1","4",0.733647,0,0,"1","ldrc_0_018","2",1,"1","A_first"
21,55,55.01,"1","1","4",0.705686,0,0,"1","ldrc_0_018","2",1,"1","A_first"
22,57,57.01,"1","1","4",0.894977,0,0,"1","ldrc_0_018","2",1,"1","A_first"
23,59,59.01,"0","0","1",0.627061,0,0,"1","ldrc_0_018","2",1,"1","A_first"
24,61,61.01,"0","0","1",0.747262,0,0,"1","ldrc_0_018","2",1,"1","A_first"
25,63,63.01,"1","1","4",0.622721,0,0,"1","ldrc_0_018","2",1,"1","A_first"
26,65,65.01,"0","0","1",0.474726,0,0,"1","ldrc_0_018","2",1,"1","A_first"
27,68,68.01,"1","1","4",0.552669,0,0,"1","ldrc_0_018","2",1,"1","A_first"
28,71,71.01,"0","0","1",0.500394,0,0,"1","ldrc_0_018","2",1,"1","A_first"
29,73,73.01,"1","1","4",0.75771,0,0,"1","ldrc_0_018","2",1,"1","A_first"
30,80,80.02,"2","0","0",0,1,0.15,"4","ldrc_0_018","2",1,"1","A_first"
31,87,87.02,"2","0","0",0,1,0.2,"4","ldrc_0_018","2",1,"1","A_first"
32,89,89,"1","1","4",0.491069,0,0,"1","ldrc_0_018","2",1,"1","A_first"
33,91,91,"3","1","0",0,1,0.25,"4","ldrc_0_018","2",1,"1","A_first"
34,94,94,"2","0","1",0.491394,1,0.3,"3","ldrc_0_018","2",1,"1","A_first"
35,96,96.01,"0","0","1",0.772634,0,0,"1","ldrc_0_018","2",1,"1","A_first"
36,98,98.01,"1","1","4",0.719845,0,0,"1","ldrc_0_018","2",1,"1","A_first"
37,100,100.01,"0","0","1",0.824101,0,0,"1","ldrc_0_018","2",1,"1","A_first"
38,103,103.01,"0","0","4",0.416984,0,0,"0","ldrc_0_018","2",1,"1","A_first"
39,106,106.01,"2","0","0",0,1,0.25,"4","ldrc_0_018","2",1,"1","A_first"
40,108,108.01,"0","0","1",0.645071,0,0,"1","ldrc_0_018","2",1,"1","A_first"
41,111,111.01,"0","0","1",0.673783,0,0,"1","ldrc_0_018","2",1,"1","A_first"
42,113,113.01,"3","1","4",0.514139,1,0.3,"3","ldrc_0_018","2",1,"1","A_first"
43,115,115.01,"2","0","0",0,1,0.25,"4","ldrc_0_018","2",1,"1","A_first"
44,118,118.01,"3","1","4",0.545344,1,0.3,"3","ldrc_0_018","2",1,"1","A_first"
45,120,120.02,"1","1","4",0.565443,0,0,"1","ldrc_0_018","2",1,"1","A_first"
46,124,124.02,"1","1","4",0.564877,0,0,"1","ldrc_0_018","2",1,"1","A_first"
47,126,126.02,"0","0","1",0.736136,0,0,"1","ldrc_0_018","2",1,"1","A_first"
48,128,128,"0","0","1",0.785994,0,0,"1","ldrc_0_018","2",1,"1","A_first"
49,130,130,"2","0","1",0.663259,1,0.25,"3","ldrc_0_018","2",1,"1","A_first"
50,132,132,"3","1","4",0.374523,1,0.2,"3","ldrc_0_018","2",1,"1","A_first"
51,134,134,"3","1","0",0,1,0.15,"4","ldrc_0_018","2",1,"1","A_first"
52,136,136.01,"0","0","1",0.43,0,0,"1","ldrc_0_018","2",1,"1","A_first"
53,139,139.01,"1","1","4",0.588964,0,0,"1","ldrc_0_018","2",1,"1","A_first"
54,142,142.01,"0","0","1",0.595669,0,0,"1","ldrc_0_018","2",1,"1","A_first"
55,144,144.01,"1","1","4",0.506939,0,0,"1","ldrc_0_018","2",1,"1","A_first"
56,146,146.01,"1","1","4",0.70416,0,0,"1","ldrc_0_018","2",1,"1","A_first"
57,148,148.01,"0","0","1",0.498372,0,0,"1","ldrc_0_018","2",1,"1","A_first"
58,150,150.01,"1","1","4",0.708679,0,0,"1","ldrc_0_018","2",1,"1","A_first"
59,152,152.01,"0","0","1",0.394815,0,0,"1","ldrc_0_018","2",1,"1","A_first"
60,154,154.01,"0","0","1",0.55242,0,0,"1","ldrc_0_018","2",1,"1","A_first"
61,158,158.01,"3","1","4",0.57061,1,0.2,"3","ldrc_0_018","2",1,"1","A_first"
62,161,161.02,"2","0","0",0,1,0.15,"4","ldrc_0_018","2",1,"1","A_first"
63,163,163.02,"2","0","0",0,1,0.2,"4","ldrc_0_018","2",1,"1","A_first"
64,171,171,"0","0","1",0.628239,0,0,"1","ldrc_0_018","2",1,"1","A_first"
65,176,176.01,"1","1","4",0.615338,0,0,"1","ldrc_0_018","2",1,"1","A_first"
66,179,179.01,"0","0","1",0.582286,0,0,"1","ldrc_0_018","2",1,"1","A_first"
67,184,184.01,"0","0","1",0.763363,0,0,"1","ldrc_0_018","2",1,"1","A_first"
68,186,186.01,"0","0","1",0.7316,0,0,"1","ldrc_0_018","2",1,"1","A_first"
69,190,190.01,"0","0","1",0.601009,0,0,"1","ldrc_0_018","2",1,"1","A_first"
70,192,192.01,"1","1","4",0.558311,0,0,"1","ldrc_0_018","2",1,"1","A_first"
71,194,194.01,"1","1","1",0.517516,0,0,"0","ldrc_0_018","2",1,"1","A_first"
72,196,196.01,"1","1","4",0.474666,0,0,"1","ldrc_0_018","2",1,"1","A_first"
73,199,199.01,"2","0","0",0,1,0.25,"4","ldrc_0_018","2",1,"1","A_first"
74,201,201.02,"3","1","4",0.608835,1,0.3,"3","ldrc_0_018","2",1,"1","A_first"
75,204,204.02,"2","0","0",0,1,0.25,"4","ldrc_0_018","2",1,"1","A_first"
76,207,207.02,"1","1","4",0.837544,0,0,"1","ldrc_0_018","2",1,"1","A_first"
77,211,211,"1","1","4",0.538674,0,0,"1","ldrc_0_018","2",1,"1","A_first"
78,214,214,"0","0","1",0.568411,0,0,"1","ldrc_0_018","2",1,"1","A_first"
79,216,216,"0","0","1",0.711696,0,0,"1","ldrc_0_018","2",1,"1","A_first"
80,219,219.01,"0","0","1",0.531736,0,0,"1","ldrc_0_018","2",1,"1","A_first"
81,221,221.01,"0","0","1",0.822793,0,0,"1","ldrc_0_018","2",1,"1","A_first"
82,225,225.01,"3","1","4",0.43235,1,0.3,"3","ldrc_0_018","2",1,"1","A_first"
83,227,227.01,"1","1","4",0.552496,0,0,"1","ldrc_0_018","2",1,"1","A_first"
84,229,229.01,"3","1","4",0.446774,1,0.25,"3","ldrc_0_018","2",1,"1","A_first"
85,231,231.01,"2","0","0",0,1,0.2,"4","ldrc_0_018","2",1,"1","A_first"
86,233,233.01,"3","1","4",0.552283,1,0.25,"3","ldrc_0_018","2",1,"1","A_first"
87,238,238.01,"1","1","4",0.589355,0,0,"1","ldrc_0_018","2",1,"1","A_first"
88,240,240.01,"1","1","4",0.460552,0,0,"1","ldrc_0_018","2",1,"1","A_first"
89,244,244.02,"1","1","4",0.613998,0,0,"1","ldrc_0_018","2",1,"1","A_first"
90,246,246.02,"0","0","1",0.664242,0,0,"1","ldrc_0_018","2",1,"1","A_first"
91,248,248.02,"1","1","4",0.559502,0,0,"1","ldrc_0_018","2",1,"1","A_first"
92,250,250,"1","1","1",0.499086,0,0,"0","ldrc_0_018","2",1,"1","A_first"
93,252,252,"1","1","4",0.491604,0,0,"1","ldrc_0_018","2",1,"1","A_first"
94,255,255,"2","0","0",0,1,0.2,"4","ldrc_0_018","2",1,"1","A_first"
95,257,257,"1","1","4",0.509719,0,0,"1","ldrc_0_018","2",1,"1","A_first"
96,259,259.01,"0","0","1",0.875043,0,0,"1","ldrc_0_018","2",1,"1","A_first"
97,261,261.01,"0","0","1",0.552228,0,0,"1","ldrc_0_018","2",1,"1","A_first"
98,263,263.01,"3","1","0",0,1,0.25,"4","ldrc_0_018","2",1,"1","A_first"
99,265,265.01,"0","0","1",0.676743,0,0,"1","ldrc_0_018","2",1,"1","A_first"
100,267,267.01,"1","1","4",0.628091,0,0,"1","ldrc_0_018","2",1,"1","A_first"
101,269,269.01,"0","0","1",0.652168,0,0,"1","ldrc_0_018","2",1,"1","A_first"
102,274,274.01,"3","1","0",0,1,0.3,"4","ldrc_0_018","2",1,"1","A_first"
103,276,276.01,"2","0","0",0,1,0.35,"4","ldrc_0_018","2",1,"1","A_first"
104,279,279.01,"0","0","1",0.55617,0,0,"1","ldrc_0_018","2",1,"1","A_first"
105,281,281.01,"0","0","1",0.556626,0,0,"1","ldrc_0_018","2",1,"1","A_first"
106,286,286.02,"1","1","4",0.560638,0,0,"1","ldrc_0_018","2",1,"1","A_first"
107,290,290.02,"1","1","4",0.600199,0,0,"1","ldrc_0_018","2",1,"1","A_first"
108,293,293,"0","0","1",0.63463,0,0,"1","ldrc_0_018","2",1,"1","A_first"
109,295,295,"0","0","1",0.692805,0,0,"1","ldrc_0_018","2",1,"1","A_first"
110,297,297,"1","1","4",0.492247,0,0,"1","ldrc_0_018","2",1,"1","A_first"
111,300,300.01,"0","0","1",0.681929,0,0,"1","ldrc_0_018","2",1,"1","A_first"
112,302,302.01,"0","0","1",0.740215,0,0,"1","ldrc_0_018","2",1,"1","A_first"
113,308,308.01,"3","1","4",0.73297,1,0.4,"3","ldrc_0_018","2",1,"1","A_first"
114,310,310.01,"0","0","0",0,0,0,"5","ldrc_0_018","2",1,"1","A_first"
115,312,312.01,"2","0","0",0,1,0.35,"4","ldrc_0_018","2",1,"1","A_first"
116,314,314.01,"0","0","1",0.624682,0,0,"1","ldrc_0_018","2",1,"1","A_first"
117,316,316.01,"0","0","1",0.801889,0,0,"1","ldrc_0_018","2",1,"1","A_first"
118,318,318.01,"0","0","1",0.644049,0,0,"1","ldrc_0_018","2",1,"1","A_first"
119,324,324.02,"1","1","4",0.568846,0,0,"1","ldrc_0_018","2",1,"1","A_first"
120,326,326.02,"1","1","4",0.548986,0,0,"1","ldrc_0_018","2",1,"1","A_first"
121,329,329.02,"0","0","1",0.635751,0,0,"1","ldrc_0_018","2",1,"1","A_first"
122,331,331,"0","0","1",0.690593,0,0,"1","ldrc_0_018","2",1,"1","A_first"
123,333,333,"1","1","4",0.508206,0,0,"1","ldrc_0_018","2",1,"1","A_first"
124,337,337,"1","1","4",0.624483,0,0,"1","ldrc_0_018","2",1,"1","A_first"
125,339,339.01,"2","0","0",0,1,0.4,"4","ldrc_0_018","2",1,"1","A_first"
126,344,344.01,"1","1","4",0.522856,0,0,"1","ldrc_0_018","2",1,"1","A_first"
127,346,346.01,"0","0","1",0.759985,0,0,"1","ldrc_0_018","2",1,"1","A_first"
0,0,0.02,"1","1","4",0.605728,0,0,"1","ldrc_0_025","1",1,"1","A_first"
1,2,2.02,"1","1","4",0.5288,0,0,"1","ldrc_0_025","1",1,"1","A_first"
2,5,5.02,"1","1","4",0.681698,0,0,"1","ldrc_0_025","1",1,"1","A_first"
3,12,12,"0","0","1",0.863639,0,0,"1","ldrc_0_025","1",1,"1","A_first"
4,14,14.01,"3","1","0",0,1,0.25,"4","ldrc_0_025","1",1,"1","A_first"
5,16,16.01,"3","1","4",0.529208,1,0.3,"3","ldrc_0_025","1",1,"1","A_first"
6,18,18.01,"2","0","1",0.369425,1,0.25,"3","ldrc_0_025","1",1,"1","A_first"
7,21,21.01,"0","0","1",0.525226,0,0,"1","ldrc_0_025","1",1,"1","A_first"
8,23,23.01,"1","1","4",0.518514,0,0,"1","ldrc_0_025","1",1,"1","A_first"
9,25,25.01,"0","0","1",0.534728,0,0,"1","ldrc_0_025","1",1,"1","A_first"
10,34,34.01,"0","0","1",0.6513,0,0,"1","ldrc_0_025","1",1,"1","A_first"
11,36,36.01,"1","1","4",0.606513,0,0,"1","ldrc_0_025","1",1,"1","A_first"
12,39,39.02,"1","1","4",0.629362,0,0,"1","ldrc_0_025","1",1,"1","A_first"
13,41,41.02,"0","0","1",0.798578,0,0,"1","ldrc_0_025","1",1,"1","A_first"
14,43,43.02,"0","0","1",0.971957,0,0,"1","ldrc_0_025","1",1,"1","A_first"
15,46,46,"0","0","1",0.568305,0,0,"1","ldrc_0_025","1",1,"1","A_first"
16,48,48,"1","1","4",0.576579,0,0,"1","ldrc_0_025","1",1,"1","A_first"
17,51,51,"1","1","4",0.544455,0,0,"1","ldrc_0_025","1",1,"1","A_first"
18,56,56.01,"3","1","0",0,1,0.2,"4","ldrc_0_025","1",1,"1","A_first"
19,58,58.01,"3","1","4",0.49385,1,0.25,"3","ldrc_0_025","1",1,"1","A_first"
20,61,61.01,"0","0","1",0.531661,0,0,"1","ldrc_0_025","1",1,"1","A_first"
21,63,63.01,"3","1","0",0,1,0.2,"4","ldrc_0_025","1",1,"1","A_first"
22,66,66.01,"1","1","4",0.546801,0,0,"1","ldrc_0_025","1",1,"1","A_first"
23,69,69.01,"1","1","4",0.645573,0,0,"1","ldrc_0_025","1",1,"1","A_first"
24,71,71.01,"0","0","1",0.584889,0,0,"1","ldrc_0_025","1",1,"1","A_first"
25,73,73.01,"0","0","1",0.539056,0,0,"1","ldrc_0_025","1",1,"1","A_first"
26,75,75.01,"0","0","1",0.591265,0,0,"1","ldrc_0_025","1",1,"1","A_first"
27,77,77.01,"1","1","4",0.59351,0,0,"1","ldrc_0_025","1",1,"1","A_first"
28,79,79.02,"1","1","4",0.691767,0,0,"1","ldrc_0_025","1",1,"1","A_first"
29,81,81.02,"1","1","4",0.657036,0,0,"1","ldrc_0_025","1",1,"1","A_first"
30,83,83.02,"0","0","1",0.678357,0,0,"1","ldrc_0_025","1",1,"1","A_first"
31,86,86,"2","0","0",0,1,0.25,"4","ldrc_0_025","1",1,"1","A_first"
32,88,88,"2","0","0",0,1,0.3,"4","ldrc_0_025","1",1,"1","A_first"
33,90,90,"3","1","0",0,1,0.35,"4","ldrc_0_025","1",1,"1","A_first"
34,93,93,"1","1","4",0.632934,0,0,"1","ldrc_0_025","1",1,"1","A_first"
35,95,95.01,"1","1","4",0.620372,0,0,"1","ldrc_0_025","1",1,"1","A_first"
36,97,97.01,"1","1","4",0.770556,0,0,"1","ldrc_0_025","1",1,"1","A_first"
37,100,100.01,"0","0","1",0.567404,0,0,"1","ldrc_0_025","1",1,"1","A_first"
38,103,103.01,"0","0","1",0.801298,0,0,"1","ldrc_0_025","1",1,"1","A_first"
39,105,105.01,"0","0","1",0.677351,0,0,"1","ldrc_0_025","1",1,"1","A_first"
40,108,108.01,"0","0","1",0.560405,0,0,"1","ldrc_0_025","1",1,"1","A_first"
41,110,110.01,"0","0","1",0.555401,0,0,"1","ldrc_0_025","1",1,"1","A_first"
42,112,112.01,"2","0","0",0,1,0.4,"4","ldrc_0_025","1",1,"1","A_first"
43,114,114.01,"3","1","4",0.640117,1,0.45,"3","ldrc_0_025","1",1,"1","A_first"
44,116,116.01,"3","1","0",0,1,0.4,"4","ldrc_0_025","1",1,"1","A_first"
45,121,121.02,"1","1","4",0.804451,0,0,"1","ldrc_0_025","1",1,"1","A_first"
46,123,123.02,"1","1","4",0.826481,0,0,"1","ldrc_0_025","1",1,"1","A_first"
47,125,125.02,"1","1","4",0.919969,0,0,"1","ldrc_0_025","1",1,"1","A_first"
48,128,128,"0","0","1",0.688297,0,0,"1","ldrc_0_025","1",1,"1","A_first"
49,130,130,"3","1","0",0,1,0.45,"4","ldrc_0_025","1",1,"1","A_first"
50,132,132,"0","0","1",0.873697,0,0,"1","ldrc_0_025","1",1,"1","A_first"
51,134,134,"1","1","4",0.6821,0,0,"1","ldrc_0_025","1",1,"1","A_first"
52,136,136.01,"0","0","1",0.459312,0,0,"1","ldrc_0_025","1",1,"1","A_first"
53,139,139.01,"2","0","1",0.597203,1,0.5,"3","ldrc_0_025","1",1,"1","A_first"
54,144,144.01,"0","0","0",0,0,0,"5","ldrc_0_025","1",1,"1","A_first"
55,147,147.01,"0","0","1",0.513091,0,0,"1","ldrc_0_025","1",1,"1","A_first"
56,149,149.01,"1","1","4",0.70739,0,0,"1","ldrc_0_025","1",1,"1","A_first"
57,153,153.01,"1","1","4",0.544806,0,0,"1","ldrc_0_025","1",1,"1","A_first"
58,155,155.01,"0","0","1",0.568129,0,0,"1","ldrc_0_025","1",1,"1","A_first"
59,157,157.01,"3","1","4",0.467396,1,0.45,"3","ldrc_0_025","1",1,"1","A_first"
60,163,163.02,"1","1","4",0.746056,0,0,"1","ldrc_0_025","1",1,"1","A_first"
61,165,165.02,"0","0","1",0.598185,0,0,"1","ldrc_0_025","1",1,"1","A_first"
62,167,167,"0","0","1",0.517997,0,0,"1","ldrc_0_025","1",1,"1","A_first"
63,169,169,"1","1","1",0.831324,0,0,"0","ldrc_0_025","1",1,"1","A_first"
64,174,174,"0","0","1",0.525433,0,0,"1","ldrc_0_025","1",1,"1","A_first"
65,177,177.01,"0","0","1",0.461314,0,0,"1","ldrc_0_025","1",1,"1","A_first"
66,179,179.01,"1","1","4",0.710819,0,0,"1","ldrc_0_025","1",1,"1","A_first"
67,181,181.01,"0","0","1",0.675869,0,0,"1","ldrc_0_025","1",1,"1","A_first"
68,183,183.01,"1","1","4",0.603034,0,0,"1","ldrc_0_025","1",1,"1","A_first"
69,186,186.01,"3","1","4",0.470866,1,0.4,"3","ldrc_0_025","1",1,"1","A_first"
70,188,188.01,"3","1","0",0,1,0.35,"4","ldrc_0_025","1",1,"1","A_first"
71,192,192.01,"0","0","1",0.405541,0,0,"1","ldrc_0_025","1",1,"1","A_first"
72,195,195.01,"0","0","1",0.447492,0,0,"1","ldrc_0_025","1",1,"1","A_first"
73,197,197.01,"3","1","4",0.465733,1,0.4,"3","ldrc_0_025","1",1,"1","A_first"
74,199,199.01,"1","1","4",0.462977,0,0,"1","ldrc_0_025","1",1,"1","A_first"
75,203,203.02,"0","0","1",0.794532,0,0,"1","ldrc_0_025","1",1,"1","A_first"
76,206,206.02,"0","0","1",0.806331,0,0,"1","ldrc_0_025","1",1,"1","A_first"
77,208,208,"1","1","4",0.787872,0,0,"1","ldrc_0_025","1",1,"1","A_first"
78,210,210,"0","0","1",0.868489,0,0,"1","ldrc_0_025","1",1,"1","A_first"
79,214,214,"3","1","0",0,1,0.35,"4","ldrc_0_025","1",1,"1","A_first"
80,217,217.01,"2","0","1",0.603814,1,0.4,"3","ldrc_0_025","1",1,"1","A_first"
81,219,219.01,"0","0","4",0.350023,0,0,"0","ldrc_0_025","1",1,"1","A_first"
82,221,221.01,"1","1","4",0.369176,0,0,"1","ldrc_0_025","1",1,"1","A_first"
83,223,223.01,"0","0","1",0.429211,0,0,"1","ldrc_0_025","1",1,"1","A_first"
84,225,225.01,"0","0","1",0.551618,0,0,"1","ldrc_0_025","1",1,"1","A_first"
85,227,227.01,"1","1","4",0.650855,0,0,"1","ldrc_0_025","1",1,"1","A_first"
86,230,230.01,"1","1","4",0.436787,0,0,"1","ldrc_0_025","1",1,"1","A_first"
87,232,232.01,"1","1","4",0.586924,0,0,"1","ldrc_0_025","1",1,"1","A_first"
88,234,234.01,"0","0","1",0.723189,0,0,"1","ldrc_0_025","1",1,"1","A_first"
89,238,238.01,"0","0","1",0.617751,0,0,"1","ldrc_0_025","1",1,"1","A_first"
90,240,240.01,"0","0","1",0.520004,0,0,"1","ldrc_0_025","1",1,"1","A_first"
91,242,242.02,"0","0","1",0.606181,0,0,"1","ldrc_0_025","1",1,"1","A_first"
92,249,249.02,"1","1","4",0.392291,0,0,"1","ldrc_0_025","1",1,"1","A_first"
93,253,253,"1","1","4",0.64765,0,0,"1","ldrc_0_025","1",1,"1","A_first"
94,257,257,"2","0","1",0.545135,1,0.35,"3","ldrc_0_025","1",1,"1","A_first"
95,259,259.01,"3","1","0",0,1,0.3,"4","ldrc_0_025","1",1,"1","A_first"
96,261,261.01,"2","0","0",0,1,0.35,"4","ldrc_0_025","1",1,"1","A_first"
97,265,265.01,"0","0","1",0.566921,0,0,"1","ldrc_0_025","1",1,"1","A_first"
98,271,271.01,"2","0","0",0,1,0.4,"4","ldrc_0_025","1",1,"1","A_first"
99,276,276.01,"2","0","1",0.666859,1,0.45,"3","ldrc_0_025","1",1,"1","A_first"
100,278,278.01,"2","0","0",0,1,0.4,"4","ldrc_0_025","1",1,"1","A_first"
101,280,280.01,"1","1","4",0.775333,0,0,"1","ldrc_0_025","1",1,"1","A_first"
102,282,282.02,"1","1","4",0.560524,0,0,"1","ldrc_0_025","1",1,"1","A_first"
103,284,284.02,"0","0","1",0.573788,0,0,"1","ldrc_0_025","1",1,"1","A_first"
104,286,286.02,"1","1","4",0.525007,0,0,"1","ldrc_0_025","1",1,"1","A_first"
105,288,288.02,"1","1","4",0.788249,0,0,"1","ldrc_0_025","1",1,"1","A_first"
106,291,291,"2","0","0",0,1,0.45,"4","ldrc_0_025","1",1,"1","A_first"
107,295,295,"0","0","1",0.642482,0,0,"1","ldrc_0_025","1",1,"1","A_first"
108,298,298.01,"2","0","1",0.680172,1,0.5,"3","ldrc_0_025","1",1,"1","A_first"
109,300,300.01,"2","0","0",0,1,0.45,"4","ldrc_0_025","1",1,"1","A_first"
110,302,302.01,"0","0","1",0.858552,0,0,"1","ldrc_0_025","1",1,"1","A_first"
111,305,305.01,"1","1","4",0.470511,0,0,"1","ldrc_0_025","1",1,"1","A_first"
112,307,307.01,"1","1","4",0.581671,0,0,"1","ldrc_0_025","1",1,"1","A_first"
113,309,309.01,"0","0","1",0.469932,0,0,"1","ldrc_0_025","1",1,"1","A_first"
114,312,312.01,"3","1","0",0,1,0.5,"4","ldrc_0_025","1",1,"1","A_first"
115,317,317.01,"0","0","1",0.644844,0,0,"1","ldrc_0_025","1",1,"1","A_first"
116,319,319.01,"1","1","4",0.40372,0,0,"1","ldrc_0_025","1",1,"1","A_first"
117,321,321.01,"0","0","1",0.758272,0,0,"1","ldrc_0_025","1",1,"1","A_first"
118,323,323.02,"0","0","1",0.865579,0,0,"1","ldrc_0_025","1",1,"1","A_first"
119,325,325.02,"1","1","0",0,0,0,"5","ldrc_0_025","1",1,"1","A_first"
120,329,329.02,"2","0","1",0.501198,1,0.55,"3","ldrc_0_025","1",1,"1","A_first"
121,331,331,"1","1","4",0.737308,0,0,"1","ldrc_0_025","1",1,"1","A_first"
122,335,335,"1","1","4",0.489758,0,0,"1","ldrc_0_025","1",1,"1","A_first"
123,337,337,"1","1","4",0.578913,0,0,"1","ldrc_0_025","1",1,"1","A_first"
124,339,339.01,"1","1","4",0.443013,0,0,"1","ldrc_0_025","1",1,"1","A_first"
125,341,341.01,"1","1","4",0.446331,0,0,"1","ldrc_0_025","1",1,"1","A_first"
126,343,343.01,"1","1","4",0.598606,0,0,"1","ldrc_0_025","1",1,"1","A_first"
127,348,348.01,"2","0","1",0.566552,1,0.5,"3","ldrc_0_025","1",1,"1","A_first"
0,0,0.02,"1","1","4",0.647647,0,0,"1","ldrc_0_026","1",1,"1","A_first"
1,2,2.02,"1","1","4",0.486901,0,0,"1","ldrc_0_026","1",1,"1","A_first"
2,5,5.02,"1","1","4",0.508626,0,0,"1","ldrc_0_026","1",1,"1","A_first"
3,12,12,"0","0","1",0.575776,0,0,"1","ldrc_0_026","1",1,"1","A_first"
4,14,14.01,"3","1","4",0.39116,1,0.25,"3","ldrc_0_026","1",1,"1","A_first"
5,16,16.01,"3","1","4",0.518301,1,0.2,"3","ldrc_0_026","1",1,"1","A_first"
6,18,18.01,"2","0","0",0,1,0.15,"4","ldrc_0_026","1",1,"1","A_first"
7,21,21.01,"0","0","1",0.417329,0,0,"1","ldrc_0_026","1",1,"1","A_first"
8,23,23.01,"1","1","4",0.564606,0,0,"1","ldrc_0_026","1",1,"1","A_first"
9,25,25.01,"0","0","1",0.80682,0,0,"1","ldrc_0_026","1",1,"1","A_first"
10,34,34.01,"0","0","1",0.57327,0,0,"1","ldrc_0_026","1",1,"1","A_first"
11,36,36.01,"1","1","4",0.493636,0,0,"1","ldrc_0_026","1",1,"1","A_first"
12,39,39.02,"1","1","4",0.536378,0,0,"1","ldrc_0_026","1",1,"1","A_first"
13,41,41.02,"0","0","1",0.623698,0,0,"1","ldrc_0_026","1",1,"1","A_first"
14,43,43.02,"0","0","1",0.55091,0,0,"1","ldrc_0_026","1",1,"1","A_first"
15,46,46,"0","0","1",0.543238,0,0,"1","ldrc_0_026","1",1,"1","A_first"
16,48,48,"1","1","4",0.477674,0,0,"1","ldrc_0_026","1",1,"1","A_first"
17,51,51,"1","1","1",0.293571,0,0,"0","ldrc_0_026","1",1,"1","A_first"
18,56,56.01,"3","1","4",0.335638,1,0.2,"3","ldrc_0_026","1",1,"1","A_first"
19,58,58.01,"3","1","4",0.528965,1,0.15,"3","ldrc_0_026","1",1,"1","A_first"
20,61,61.01,"0","0","1",0.582704,0,0,"1","ldrc_0_026","1",1,"1","A_first"
21,63,63.01,"3","1","4",0.463856,1,0.1,"3","ldrc_0_026","1",1,"1","A_first"
22,66,66.01,"1","1","4",0.679778,0,0,"1","ldrc_0_026","1",1,"1","A_first"
23,69,69.01,"1","1","4",0.442558,0,0,"1","ldrc_0_026","1",1,"1","A_first"
24,71,71.01,"0","0","4",0.354907,0,0,"0","ldrc_0_026","1",1,"1","A_first"
25,73,73.01,"0","0","1",0.829257,0,0,"1","ldrc_0_026","1",1,"1","A_first"
26,75,75.01,"0","0","1",0.707383,0,0,"1","ldrc_0_026","1",1,"1","A_first"
27,77,77.01,"1","1","4",0.602629,0,0,"1","ldrc_0_026","1",1,"1","A_first"
28,79,79.02,"1","1","4",0.859877,0,0,"1","ldrc_0_026","1",1,"1","A_first"
29,81,81.02,"1","1","4",0.566013,0,0,"1","ldrc_0_026","1",1,"1","A_first"
30,83,83.02,"0","0","1",0.575293,0,0,"1","ldrc_0_026","1",1,"1","A_first"
31,86,86,"2","0","0",0,1,0.05,"4","ldrc_0_026","1",1,"1","A_first"
32,88,88,"2","0","0",0,1,0.1,"4","ldrc_0_026","1",1,"1","A_first"
33,90,90,"3","1","0",0,1,0.15,"4","ldrc_0_026","1",1,"1","A_first"
34,93,93,"1","1","4",0.499163,0,0,"1","ldrc_0_026","1",1,"1","A_first"
35,95,95.01,"1","1","4",0.510354,0,0,"1","ldrc_0_026","1",1,"1","A_first"
36,97,97.01,"1","1","4",0.714652,0,0,"1","ldrc_0_026","1",1,"1","A_first"
37,100,100.01,"0","0","1",0.512517,0,0,"1","ldrc_0_026","1",1,"1","A_first"
38,103,103.01,"0","0","1",0.787468,0,0,"1","ldrc_0_026","1",1,"1","A_first"
39,105,105.01,"0","0","1",0.516549,0,0,"1","ldrc_0_026","1",1,"1","A_first"
40,108,108.01,"0","0","1",0.7314,0,0,"1","ldrc_0_026","1",1,"1","A_first"
41,110,110.01,"0","0","1",0.558699,0,0,"1","ldrc_0_026","1",1,"1","A_first"
42,112,112.01,"2","0","0",0,1,0.2,"4","ldrc_0_026","1",1,"1","A_first"
43,114,114.01,"3","1","0",0,1,0.25,"4","ldrc_0_026","1",1,"1","A_first"
44,116,116.01,"3","1","0",0,1,0.3,"4","ldrc_0_026","1",1,"1","A_first"
45,121,121.02,"1","1","4",0.529504,0,0,"1","ldrc_0_026","1",1,"1","A_first"
46,123,123.02,"1","1","4",0.545706,0,0,"1","ldrc_0_026","1",1,"1","A_first"
47,125,125.02,"1","1","4",0.419857,0,0,"1","ldrc_0_026","1",1,"1","A_first"
48,128,128,"0","0","1",0.597357,0,0,"1","ldrc_0_026","1",1,"1","A_first"
49,130,130,"3","1","4",0.556652,1,0.35,"3","ldrc_0_026","1",1,"1","A_first"
50,132,132,"0","0","0",0,0,0,"5","ldrc_0_026","1",1,"1","A_first"
51,134,134,"1","1","0",0,0,0,"5","ldrc_0_026","1",1,"1","A_first"
52,136,136.01,"0","0","0",0,0,0,"5","ldrc_0_026","1",1,"1","A_first"
53,139,139.01,"2","0","1",0.526326,1,0.3,"3","ldrc_0_026","1",1,"1","A_first"
54,144,144.01,"0","0","4",0.609373,0,0,"0","ldrc_0_026","1",1,"1","A_first"
55,147,147.01,"0","0","0",0,0,0,"5","ldrc_0_026","1",1,"1","A_first"
56,149,149.01,"1","1","4",0.994707,0,0,"1","ldrc_0_026","1",1,"1","A_first"
57,153,153.01,"1","1","4",0.328946,0,0,"1","ldrc_0_026","1",1,"1","A_first"
58,155,155.01,"0","0","1",0.699173,0,0,"1","ldrc_0_026","1",1,"1","A_first"
59,157,157.01,"3","1","0",0,1,0.25,"4","ldrc_0_026","1",1,"1","A_first"
60,163,163.02,"1","1","1",0.592089,0,0,"0","ldrc_0_026","1",1,"1","A_first"
61,165,165.02,"0","0","1",0.831383,0,0,"1","ldrc_0_026","1",1,"1","A_first"
62,167,167,"0","0","1",0.791041,0,0,"1","ldrc_0_026","1",1,"1","A_first"
63,169,169,"1","1","0",0,0,0,"5","ldrc_0_026","1",1,"1","A_first"
64,174,174,"0","0","1",0.511525,0,0,"1","ldrc_0_026","1",1,"1","A_first"
65,177,177.01,"0","0","1",0.626405,0,0,"1","ldrc_0_026","1",1,"1","A_first"
66,179,179.01,"1","1","0",0,0,0,"5","ldrc_0_026","1",1,"1","A_first"
67,181,181.01,"0","0","1",0.616959,0,0,"1","ldrc_0_026","1",1,"1","A_first"
68,183,183.01,"1","1","4",0.438123,0,0,"1","ldrc_0_026","1",1,"1","A_first"
69,186,186.01,"3","1","1",0.385999,1,0.3,"2","ldrc_0_026","1",1,"1","A_first"
70,188,188.01,"3","1","0",0,1,0.25,"4","ldrc_0_026","1",1,"1","A_first"
71,192,192.01,"0","0","1",0.499502,0,0,"1","ldrc_0_026","1",1,"1","A_first"
72,195,195.01,"0","0","1",0.586383,0,0,"1","ldrc_0_026","1",1,"1","A_first"
73,197,197.01,"3","1","0",0,1,0.3,"4","ldrc_0_026","1",1,"1","A_first"
74,199,199.01,"1","1","4",0.542979,0,0,"1","ldrc_0_026","1",1,"1","A_first"
75,203,203.02,"0","0","1",0.526387,0,0,"1","ldrc_0_026","1",1,"1","A_first"
76,206,206.02,"0","0","1",0.515341,0,0,"1","ldrc_0_026","1",1,"1","A_first"
77,208,208,"1","1","4",0.395121,0,0,"1","ldrc_0_026","1",1,"1","A_first"
78,210,210,"0","0","1",0.453425,0,0,"1","ldrc_0_026","1",1,"1","A_first"
79,214,214,"3","1","4",0.509887,1,0.35,"3","ldrc_0_026","1",1,"1","A_first"
80,217,217.01,"2","0","0",0,1,0.3,"4","ldrc_0_026","1",1,"1","A_first"
81,219,219.01,"0","0","1",0.926033,0,0,"1","ldrc_0_026","1",1,"1","A_first"
82,221,221.01,"1","1","4",0.571224,0,0,"1","ldrc_0_026","1",1,"1","A_first"
83,223,223.01,"0","0","1",0.312325,0,0,"1","ldrc_0_026","1",1,"1","A_first"
84,225,225.01,"0","0","1",0.541758,0,0,"1","ldrc_0_026","1",1,"1","A_first"
85,227,227.01,"1","1","4",0.348974,0,0,"1","ldrc_0_026","1",1,"1","A_first"
86,230,230.01,"1","1","4",0.489797,0,0,"1","ldrc_0_026","1",1,"1","A_first"
87,232,232.01,"1","1","4",0.717844,0,0,"1","ldrc_0_026","1",1,"1","A_first"
88,234,234.01,"0","0","1",0.538262,0,0,"1","ldrc_0_026","1",1,"1","A_first"
89,238,238.01,"0","0","1",0.498793,0,0,"1","ldrc_0_026","1",1,"1","A_first"
90,240,240.01,"0","0","1",0.445986,0,0,"1","ldrc_0_026","1",1,"1","A_first"
91,242,242.02,"0","0","1",0.482278,0,0,"1","ldrc_0_026","1",1,"1","A_first"
92,249,249.02,"1","1","4",0.462507,0,0,"1","ldrc_0_026","1",1,"1","A_first"
93,253,253,"1","1","4",0.526575,0,0,"1","ldrc_0_026","1",1,"1","A_first"
94,257,257,"2","0","1",0.483219,1,0.35,"3","ldrc_0_026","1",1,"1","A_first"
95,259,259.01,"3","1","0",0,1,0.3,"4","ldrc_0_026","1",1,"1","A_first"
96,261,261.01,"2","0","1",0.814773,1,0.35,"3","ldrc_0_026","1",1,"1","A_first"
97,265,265.01,"0","0","0",0,0,0,"5","ldrc_0_026","1",1,"1","A_first"
98,271,271.01,"2","0","0",0,1,0.3,"4","ldrc_0_026","1",1,"1","A_first"
99,276,276.01,"2","0","0",0,1,0.35,"4","ldrc_0_026","1",1,"1","A_first"
100,278,278.01,"2","0","0",0,1,0.4,"4","ldrc_0_026","1",1,"1","A_first"
101,280,280.01,"1","1","4",0.896475,0,0,"1","ldrc_0_026","1",1,"1","A_first"
102,282,282.02,"1","1","4",0.649592,0,0,"1","ldrc_0_026","1",1,"1","A_first"
103,284,284.02,"0","0","1",0.514843,0,0,"1","ldrc_0_026","1",1,"1","A_first"
104,286,286.02,"1","1","4",0.389067,0,0,"1","ldrc_0_026","1",1,"1","A_first"
105,288,288.02,"1","1","4",0.540287,0,0,"1","ldrc_0_026","1",1,"1","A_first"
106,291,291,"2","0","1",0.532846,1,0.45,"3","ldrc_0_026","1",1,"1","A_first"
107,295,295,"0","0","1",0.645276,0,0,"1","ldrc_0_026","1",1,"1","A_first"
108,298,298.01,"2","0","1",0.561197,1,0.4,"3","ldrc_0_026","1",1,"1","A_first"
109,300,300.01,"2","0","1",0.408434,1,0.35,"3","ldrc_0_026","1",1,"1","A_first"
110,302,302.01,"0","0","1",0.820692,0,0,"1","ldrc_0_026","1",1,"1","A_first"
111,305,305.01,"1","1","4",0.488504,0,0,"1","ldrc_0_026","1",1,"1","A_first"
112,307,307.01,"1","1","4",0.83372,0,0,"1","ldrc_0_026","1",1,"1","A_first"
113,309,309.01,"0","0","1",0.563922,0,0,"1","ldrc_0_026","1",1,"1","A_first"
114,312,312.01,"3","1","4",0.361853,1,0.3,"3","ldrc_0_026","1",1,"1","A_first"
115,317,317.01,"0","0","1",0.498851,0,0,"1","ldrc_0_026","1",1,"1","A_first"
116,319,319.01,"1","1","4",0.537303,0,0,"1","ldrc_0_026","1",1,"1","A_first"
117,321,321.01,"0","0","1",0.582359,0,0,"1","ldrc_0_026","1",1,"1","A_first"
118,323,323.02,"0","0","4",0.469589,0,0,"0","ldrc_0_026","1",1,"1","A_first"
119,325,325.02,"1","1","4",0.613937,0,0,"1","ldrc_0_026","1",1,"1","A_first"
120,329,329.02,"2","0","4",0.850601,1,0.25,"2","ldrc_0_026","1",1,"1","A_first"
121,331,331,"1","1","4",0.763214,0,0,"1","ldrc_0_026","1",1,"1","A_first"
122,335,335,"1","1","4",0.640721,0,0,"1","ldrc_0_026","1",1,"1","A_first"
123,337,337,"1","1","0",0,0,0,"5","ldrc_0_026","1",1,"1","A_first"
124,339,339.01,"1","1","4",0.701164,0,0,"1","ldrc_0_026","1",1,"1","A_first"
125,341,341.01,"1","1","4",0.720398,0,0,"1","ldrc_0_026","1",1,"1","A_first"
126,343,343.01,"1","1","0",0,0,0,"5","ldrc_0_026","1",1,"1","A_first"
127,348,348.01,"2","0","1",0.901805,1,0.2,"3","ldrc_0_026","1",1,"1","A_first"
0,0,0.02,"0","0","1",0.632787,0,0,"1","ldrc_0_026","2",1,"1","A_first"
1,2,2.02,"0","0","1",0.518984,0,0,"1","ldrc_0_026","2",1,"1","A_first"
2,6,6.02,"0","0","1",0.556511,0,0,"1","ldrc_0_026","2",1,"1","A_first"
3,8,8,"1","1","4",0.330437,0,0,"1","ldrc_0_026","2",1,"1","A_first"
4,10,10,"1","1","4",0.432753,0,0,"1","ldrc_0_026","2",1,"1","A_first"
5,12,12,"1","1","4",0.565831,0,0,"1","ldrc_0_026","2",1,"1","A_first"
6,14,14.01,"1","1","4",0.419043,0,0,"1","ldrc_0_026","2",1,"1","A_first"
7,16,16.01,"1","1","4",0.331328,0,0,"1","ldrc_0_026","2",1,"1","A_first"
8,19,19.01,"1","1","4",0.500136,0,0,"1","ldrc_0_026","2",1,"1","A_first"
9,21,21.01,"0","0","1",0.517425,0,0,"1","ldrc_0_026","2",1,"1","A_first"
10,24,24.01,"2","0","1",0.496362,1,0.25,"3","ldrc_0_026","2",1,"1","A_first"
11,29,29.01,"3","1","0",0,1,0.2,"4","ldrc_0_026","2",1,"1","A_first"
12,31,31.01,"0","0","1",0.738613,0,0,"1","ldrc_0_026","2",1,"1","A_first"
13,33,33.01,"1","1","4",0.486815,0,0,"1","ldrc_0_026","2",1,"1","A_first"
14,35,35.01,"3","1","4",0.400164,1,0.25,"3","ldrc_0_026","2",1,"1","A_first"
15,38,38.02,"1","1","4",0.570086,0,0,"1","ldrc_0_026","2",1,"1","A_first"
16,40,40.02,"1","1","4",0.606087,0,0,"1","ldrc_0_026","2",1,"1","A_first"
17,42,42.02,"3","1","0",0,1,0.2,"4","ldrc_0_026","2",1,"1","A_first"
18,44,44.02,"1","1","4",0.52359,0,0,"1","ldrc_0_026","2",1,"1","A_first"
19,46,46,"1","1","4",0.739556,0,0,"1","ldrc_0_026","2",1,"1","A_first"
20,52,52,"1","1","4",0.513523,0,0,"1","ldrc_0_026","2",1,"1","A_first"
21,55,55.01,"1","1","0",0,0,0,"5","ldrc_0_026","2",1,"1","A_first"
22,57,57.01,"1","1","4",0.443408,0,0,"1","ldrc_0_026","2",1,"1","A_first"
23,59,59.01,"0","0","1",0.750461,0,0,"1","ldrc_0_026","2",1,"1","A_first"
24,61,61.01,"0","0","4",0.878791,0,0,"0","ldrc_0_026","2",1,"1","A_first"
25,63,63.01,"1","1","4",0.743056,0,0,"1","ldrc_0_026","2",1,"1","A_first"
26,65,65.01,"0","0","1",0.521218,0,0,"1","ldrc_0_026","2",1,"1","A_first"
27,68,68.01,"1","1","4",0.430316,0,0,"1","ldrc_0_026","2",1,"1","A_first"
28,71,71.01,"0","0","1",0.462028,0,0,"1","ldrc_0_026","2",1,"1","A_first"
29,73,73.01,"1","1","4",0.55225,0,0,"1","ldrc_0_026","2",1,"1","A_first"
30,80,80.02,"2","0","1",0.546499,1,0.25,"3","ldrc_0_026","2",1,"1","A_first"
31,87,87.02,"2","0","1",0.570926,1,0.2,"3","ldrc_0_026","2",1,"1","A_first"
32,89,89,"1","1","4",0.510783,0,0,"1","ldrc_0_026","2",1,"1","A_first"
33,91,91,"3","1","0",0,1,0.15,"4","ldrc_0_026","2",1,"1","A_first"
34,94,94,"2","0","1",0.48689,1,0.2,"3","ldrc_0_026","2",1,"1","A_first"
35,96,96.01,"0","0","1",0.591015,0,0,"1","ldrc_0_026","2",1,"1","A_first"
36,98,98.01,"1","1","4",0.331497,0,0,"1","ldrc_0_026","2",1,"1","A_first"
37,100,100.01,"0","0","1",0.624573,0,0,"1","ldrc_0_026","2",1,"1","A_first"
38,103,103.01,"0","0","1",0.646581,0,0,"1","ldrc_0_026","2",1,"1","A_first"
39,106,106.01,"2","0","0",0,1,0.15,"4","ldrc_0_026","2",1,"1","A_first"
40,108,108.01,"0","0","1",0.557521,0,0,"1","ldrc_0_026","2",1,"1","A_first"
41,111,111.01,"0","0","1",0.424362,0,0,"1","ldrc_0_026","2",1,"1","A_first"
42,113,113.01,"3","1","4",0.821609,1,0.2,"3","ldrc_0_026","2",1,"1","A_first"
43,115,115.01,"2","0","1",0.428024,1,0.15,"3","ldrc_0_026","2",1,"1","A_first"
44,118,118.01,"3","1","0",0,1,0.1,"4","ldrc_0_026","2",1,"1","A_first"
45,120,120.02,"1","1","4",0.793897,0,0,"1","ldrc_0_026","2",1,"1","A_first"
46,124,124.02,"1","1","4",0.437335,0,0,"1","ldrc_0_026","2",1,"1","A_first"
47,126,126.02,"0","0","1",0.682659,0,0,"1","ldrc_0_026","2",1,"1","A_first"
48,128,128,"0","0","1",0.947717,0,0,"1","ldrc_0_026","2",1,"1","A_first"
49,130,130,"2","0","1",0.335701,1,0.15,"3","ldrc_0_026","2",1,"1","A_first"
50,132,132,"3","1","4",0.435029,1,0.1,"3","ldrc_0_026","2",1,"1","A_first"
51,134,134,"3","1","0",0,1,0.05,"4","ldrc_0_026","2",1,"1","A_first"
52,136,136.01,"0","0","1",0.564435,0,0,"1","ldrc_0_026","2",1,"1","A_first"
53,139,139.01,"1","1","4",0.467365,0,0,"1","ldrc_0_026","2",1,"1","A_first"
54,142,142.01,"0","0","1",0.743196,0,0,"1","ldrc_0_026","2",1,"1","A_first"
55,144,144.01,"1","1","4",0.504443,0,0,"1","ldrc_0_026","2",1,"1","A_first"
56,146,146.01,"1","1","4",0.598708,0,0,"1","ldrc_0_026","2",1,"1","A_first"
57,148,148.01,"0","0","1",0.365926,0,0,"1","ldrc_0_026","2",1,"1","A_first"
58,150,150.01,"1","1","4",0.395096,0,0,"1","ldrc_0_026","2",1,"1","A_first"
59,152,152.01,"0","0","1",0.492344,0,0,"1","ldrc_0_026","2",1,"1","A_first"
60,154,154.01,"0","0","1",0.674558,0,0,"1","ldrc_0_026","2",1,"1","A_first"
61,158,158.01,"3","1","4",0.485277,1,0.1,"3","ldrc_0_026","2",1,"1","A_first"
62,161,161.02,"2","0","0",0,1,0.05,"4","ldrc_0_026","2",1,"1","A_first"
63,163,163.02,"2","0","0",0,1,0.1,"4","ldrc_0_026","2",1,"1","A_first"
64,171,171,"0","0","1",0.620795,0,0,"1","ldrc_0_026","2",1,"1","A_first"
65,176,176,"1","1","4",0.490904,0,0,"1","ldrc_0_026","2",1,"1","A_first"
66,179,179.01,"0","0","1",0.59177,0,0,"1","ldrc_0_026","2",1,"1","A_first"
67,184,184.01,"0","0","1",0.484811,0,0,"1","ldrc_0_026","2",1,"1","A_first"
68,186,186.01,"0","0","0",0,0,0,"5","ldrc_0_026","2",1,"1","A_first"
69,190,190.01,"0","0","1",0.414498,0,0,"1","ldrc_0_026","2",1,"1","A_first"
70,192,192.01,"1","1","4",0.396677,0,0,"1","ldrc_0_026","2",1,"1","A_first"
71,194,194.01,"1","1","4",0.525017,0,0,"1","ldrc_0_026","2",1,"1","A_first"
72,196,196.01,"1","1","4",0.428257,0,0,"1","ldrc_0_026","2",1,"1","A_first"
73,199,199.01,"2","0","0",0,1,0.15,"4","ldrc_0_026","2",1,"1","A_first"
74,201,201.02,"3","1","0",0,1,0.2,"4","ldrc_0_026","2",1,"1","A_first"
75,204,204.02,"2","0","0",0,1,0.25,"4","ldrc_0_026","2",1,"1","A_first"
76,207,207.02,"1","1","4",0.564083,0,0,"1","ldrc_0_026","2",1,"1","A_first"
77,211,211,"1","1","4",0.961157,0,0,"1","ldrc_0_026","2",1,"1","A_first"
78,214,214,"0","0","1",0.346959,0,0,"1","ldrc_0_026","2",1,"1","A_first"
79,216,216,"0","0","1",0.551306,0,0,"1","ldrc_0_026","2",1,"1","A_first"
80,219,219.01,"0","0","1",0.697095,0,0,"1","ldrc_0_026","2",1,"1","A_first"
81,221,221.01,"0","0","1",0.909367,0,0,"1","ldrc_0_026","2",1,"1","A_first"
82,225,225.01,"3","1","4",0.554871,1,0.3,"3","ldrc_0_026","2",1,"1","A_first"
83,227,227.01,"1","1","0",0,0,0,"5","ldrc_0_026","2",1,"1","A_first"
84,229,229.01,"3","1","0",0,1,0.25,"4","ldrc_0_026","2",1,"1","A_first"
85,231,231.01,"2","0","0",0,1,0.3,"4","ldrc_0_026","2",1,"1","A_first"
86,233,233.01,"3","1","4",0.450761,1,0.35,"3","ldrc_0_026","2",1,"1","A_first"
87,238,238.01,"1","1","4",0.555898,0,0,"1","ldrc_0_026","2",1,"1","A_first"
88,240,240.01,"1","1","4",0.666866,0,0,"1","ldrc_0_026","2",1,"1","A_first"
89,244,244.02,"1","1","4",0.557585,0,0,"1","ldrc_0_026","2",1,"1","A_first"
90,246,246.02,"0","0","1",0.522736,0,0,"1","ldrc_0_026","2",1,"1","A_first"
91,248,248.02,"1","1","4",0.530177,0,0,"1","ldrc_0_026","2",1,"1","A_first"
92,250,250,"1","1","0",0,0,0,"5","ldrc_0_026","2",1,"1","A_first"
93,252,252,"1","1","0",0,0,0,"5","ldrc_0_026","2",1,"1","A_first"
94,255,255,"2","0","1",0.46606,1,0.3,"3","ldrc_0_026","2",1,"1","A_first"
95,257,257,"1","1","4",0.490232,0,0,"1","ldrc_0_026","2",1,"1","A_first"
96,259,259.01,"0","0","1",0.454505,0,0,"1","ldrc_0_026","2",1,"1","A_first"
97,261,261.01,"0","0","1",0.539767,0,0,"1","ldrc_0_026","2",1,"1","A_first"
98,263,263.01,"3","1","4",0.379923,1,0.25,"3","ldrc_0_026","2",1,"1","A_first"
99,265,265.01,"0","0","1",0.630251,0,0,"1","ldrc_0_026","2",1,"1","A_first"
100,267,267.01,"1","1","0",0,0,0,"5","ldrc_0_026","2",1,"1","A_first"
101,269,269.01,"0","0","1",0.605677,0,0,"1","ldrc_0_026","2",1,"1","A_first"
102,274,274.01,"3","1","4",0.358798,1,0.2,"3","ldrc_0_026","2",1,"1","A_first"
103,276,276.01,"2","0","1",0.803878,1,0.15,"3","ldrc_0_026","2",1,"1","A_first"
104,279,279.01,"0","0","1",0.527899,0,0,"1","ldrc_0_026","2",1,"1","A_first"
105,281,281.01,"0","0","1",0.817129,0,0,"1","ldrc_0_026","2",1,"1","A_first"
106,286,286.02,"1","1","4",0.434168,0,0,"1","ldrc_0_026","2",1,"1","A_first"
107,290,290.02,"1","1","4",0.626631,0,0,"1","ldrc_0_026","2",1,"1","A_first"
108,293,293,"0","0","0",0,0,0,"5","ldrc_0_026","2",1,"1","A_first"
109,295,295,"0","0","0",0,0,0,"5","ldrc_0_026","2",1,"1","A_first"
110,297,297,"1","1","0",0,0,0,"5","ldrc_0_026","2",1,"1","A_first"
111,300,300.01,"0","0","0",0,0,0,"5","ldrc_0_026","2",1,"1","A_first"
112,302,302.01,"0","0","1",0.524642,0,0,"1","ldrc_0_026","2",1,"1","A_first"
113,308,308.01,"3","1","4",0.668661,1,0.1,"3","ldrc_0_026","2",1,"1","A_first"
114,310,310.01,"0","0","1",0.393616,0,0,"1","ldrc_0_026","2",1,"1","A_first"
115,312,312.01,"2","0","1",0.842833,1,0.05,"3","ldrc_0_026","2",1,"1","A_first"
116,314,314.01,"0","0","4",0.048182,0,0,"0","ldrc_0_026","2",1,"1","A_first"
117,316,316.01,"0","0","1",0.394427,0,0,"1","ldrc_0_026","2",1,"1","A_first"
118,318,318.01,"0","0","1",0.504529,0,0,"1","ldrc_0_026","2",1,"1","A_first"
119,324,324.02,"1","1","4",0.457268,0,0,"1","ldrc_0_026","2",1,"1","A_first"
120,326,326.02,"1","1","4",0.73954,0,0,"1","ldrc_0_026","2",1,"1","A_first"
121,329,329.02,"0","0","1",0.456293,0,0,"1","ldrc_0_026","2",1,"1","A_first"
122,331,331,"0","0","1",0.968262,0,0,"1","ldrc_0_026","2",1,"1","A_first"
123,333,333,"1","1","4",0.466557,0,0,"1","ldrc_0_026","2",1,"1","A_first"
124,337,337,"1","1","0",0,0,0,"5","ldrc_0_026","2",1,"1","A_first"
125,339,339.01,"2","0","0",0,1,0,"4","ldrc_0_026","2",1,"1","A_first"
126,344,344.01,"1","1","4",0.447323,0,0,"1","ldrc_0_026","2",1,"1","A_first"
127,346,346.01,"0","0","1",0.861585,0,0,"1","ldrc_0_026","2",1,"1","A_first"
0,0,0.02,"0","0","1",0.757687,0,0,"1","ldrc_0_054","1",1,"1","A_first"
1,2,2.02,"0","0","1",0.533795,0,0,"1","ldrc_0_054","1",1,"1","A_first"
2,6,6.02,"0","0","1",0.60313,0,0,"1","ldrc_0_054","1",1,"1","A_first"
3,8,8,"1","1","4",0.616138,0,0,"1","ldrc_0_054","1",1,"1","A_first"
4,10,10,"1","1","4",0.508403,0,0,"1","ldrc_0_054","1",1,"1","A_first"
5,12,12,"1","1","4",0.293615,0,0,"1","ldrc_0_054","1",1,"1","A_first"
6,14,14.01,"1","1","4",0.458898,0,0,"1","ldrc_0_054","1",1,"1","A_first"
7,16,16.01,"1","1","4",0.413133,0,0,"1","ldrc_0_054","1",1,"1","A_first"
8,19,19.01,"1","1","4",0.426015,0,0,"1","ldrc_0_054","1",1,"1","A_first"
9,21,21.01,"0","0","4",0.349334,0,0,"0","ldrc_0_054","1",1,"1","A_first"
10,24,24.01,"2","0","4",0.387161,1,0.25,"2","ldrc_0_054","1",1,"1","A_first"
11,29,29.01,"3","1","0",0,1,0.2,"4","ldrc_0_054","1",1,"1","A_first"
12,31,31.01,"0","0","1",0.473234,0,0,"1","ldrc_0_054","1",1,"1","A_first"
13,33,33.01,"1","1","4",0.532757,0,0,"1","ldrc_0_054","1",1,"1","A_first"
14,35,35.01,"3","1","0",0,1,0.25,"4","ldrc_0_054","1",1,"1","A_first"
15,38,38.02,"1","1","4",0.573647,0,0,"1","ldrc_0_054","1",1,"1","A_first"
16,40,40.02,"1","1","4",0.676896,0,0,"1","ldrc_0_054","1",1,"1","A_first"
17,42,42.02,"3","1","4",0.38023,1,0.3,"3","ldrc_0_054","1",1,"1","A_first"
18,44,44.02,"1","1","4",0.381454,0,0,"1","ldrc_0_054","1",1,"1","A_first"
19,46,46,"1","1","4",0.430213,0,0,"1","ldrc_0_054","1",1,"1","A_first"
20,52,52,"1","1","4",0.575254,0,0,"1","ldrc_0_054","1",1,"1","A_first"
21,55,55.01,"1","1","4",0.469816,0,0,"1","ldrc_0_054","1",1,"1","A_first"
22,57,57.01,"1","1","4",0.530062,0,0,"1","ldrc_0_054","1",1,"1","A_first"
23,59,59.01,"0","0","1",0.585307,0,0,"1","ldrc_0_054","1",1,"1","A_first"
24,61,61.01,"0","0","1",0.506547,0,0,"1","ldrc_0_054","1",1,"1","A_first"
25,63,63.01,"1","1","4",0.441982,0,0,"1","ldrc_0_054","1",1,"1","A_first"
26,65,65.01,"0","0","1",0.40605,0,0,"1","ldrc_0_054","1",1,"1","A_first"
27,68,68.01,"1","1","4",0.415854,0,0,"1","ldrc_0_054","1",1,"1","A_first"
28,71,71.01,"0","0","1",0.569746,0,0,"1","ldrc_0_054","1",1,"1","A_first"
29,73,73.01,"1","1","4",0.431996,0,0,"1","ldrc_0_054","1",1,"1","A_first"
30,80,80.02,"2","0","0",0,1,0.25,"4","ldrc_0_054","1",1,"1","A_first"
31,87,87.02,"2","0","1",0.517965,1,0.3,"3","ldrc_0_054","1",1,"1","A_first"
32,89,89,"1","1","4",0.464453,0,0,"1","ldrc_0_054","1",1,"1","A_first"
33,91,91,"3","1","0",0,1,0.25,"4","ldrc_0_054","1",1,"1","A_first"
34,94,94,"2","0","1",0.47443,1,0.3,"3","ldrc_0_054","1",1,"1","A_first"
35,96,96.01,"0","0","0",0,0,0,"5","ldrc_0_054","1",1,"1","A_first"
36,98,98.01,"1","1","4",0.607051,0,0,"1","ldrc_0_054","1",1,"1","A_first"
37,100,100.01,"0","0","1",0.35329,0,0,"1","ldrc_0_054","1",1,"1","A_first"
38,103,103.01,"0","0","1",0.589135,0,0,"1","ldrc_0_054","1",1,"1","A_first"
39,106,106.01,"2","0","0",0,1,0.25,"4","ldrc_0_054","1",1,"1","A_first"
40,108,108.01,"0","0","1",0.583138,0,0,"1","ldrc_0_054","1",1,"1","A_first"
41,111,111.01,"0","0","1",0.671104,0,0,"1","ldrc_0_054","1",1,"1","A_first"
42,113,113.01,"3","1","0",0,1,0.3,"4","ldrc_0_054","1",1,"1","A_first"
43,115,115.01,"2","0","0",0,1,0.35,"4","ldrc_0_054","1",1,"1","A_first"
44,118,118.01,"3","1","0",0,1,0.4,"4","ldrc_0_054","1",1,"1","A_first"
45,120,120.02,"1","1","0",0,0,0,"5","ldrc_0_054","1",1,"1","A_first"
46,124,124.02,"1","1","4",0.572034,0,0,"1","ldrc_0_054","1",1,"1","A_first"
47,126,126.02,"0","0","1",0.491336,0,0,"1","ldrc_0_054","1",1,"1","A_first"
48,128,128,"0","0","1",0.809126,0,0,"1","ldrc_0_054","1",1,"1","A_first"
49,130,130,"2","0","1",0.546426,1,0.45,"3","ldrc_0_054","1",1,"1","A_first"
50,132,132,"3","1","4",0.511686,1,0.4,"3","ldrc_0_054","1",1,"1","A_first"
51,134,134,"3","1","0",0,1,0.35,"4","ldrc_0_054","1",1,"1","A_first"
52,136,136.01,"0","0","1",0.858094,0,0,"1","ldrc_0_054","1",1,"1","A_first"
53,139,139.01,"1","1","4",0.553947,0,0,"1","ldrc_0_054","1",1,"1","A_first"
54,142,142.01,"0","0","1",0.538771,0,0,"1","ldrc_0_054","1",1,"1","A_first"
55,144,144.01,"1","1","4",0.814126,0,0,"1","ldrc_0_054","1",1,"1","A_first"
56,146,146.01,"1","1","4",0.545235,0,0,"1","ldrc_0_054","1",1,"1","A_first"
57,148,148.01,"0","0","1",0.6034,0,0,"1","ldrc_0_054","1",1,"1","A_first"
58,150,150.01,"1","1","4",0.599202,0,0,"1","ldrc_0_054","1",1,"1","A_first"
59,152,152.01,"0","0","1",0.444023,0,0,"1","ldrc_0_054","1",1,"1","A_first"
60,154,154.01,"0","0","1",0.715345,0,0,"1","ldrc_0_054","1",1,"1","A_first"
61,158,158.01,"3","1","4",0.702723,1,0.4,"3","ldrc_0_054","1",1,"1","A_first"
62,161,161.02,"2","0","1",0.469514,1,0.35,"3","ldrc_0_054","1",1,"1","A_first"
63,163,163.02,"2","0","0",0,1,0.3,"4","ldrc_0_054","1",1,"1","A_first"
64,171,171,"0","0","1",0.726383,0,0,"1","ldrc_0_054","1",1,"1","A_first"
65,176,176.01,"1","1","4",0.818492,0,0,"1","ldrc_0_054","1",1,"1","A_first"
66,179,179.01,"0","0","0",0,0,0,"5","ldrc_0_054","1",1,"1","A_first"
67,184,184.01,"0","0","1",0.998333,0,0,"1","ldrc_0_054","1",1,"1","A_first"
68,186,186.01,"0","0","1",0.608603,0,0,"1","ldrc_0_054","1",1,"1","A_first"
69,190,190.01,"0","0","1",0.532124,0,0,"1","ldrc_0_054","1",1,"1","A_first"
70,192,192.01,"1","1","0",0,0,0,"5","ldrc_0_054","1",1,"1","A_first"
71,194,194.01,"1","1","4",0.627536,0,0,"1","ldrc_0_054","1",1,"1","A_first"
72,196,196.01,"1","1","4",0.921803,0,0,"1","ldrc_0_054","1",1,"1","A_first"
73,199,199.01,"2","0","1",0.439607,1,0.35,"3","ldrc_0_054","1",1,"1","A_first"
74,201,201.02,"3","1","4",0.495046,1,0.3,"3","ldrc_0_054","1",1,"1","A_first"
75,204,204.02,"2","0","0",0,1,0.25,"4","ldrc_0_054","1",1,"1","A_first"
76,207,207.02,"1","1","4",0.663609,0,0,"1","ldrc_0_054","1",1,"1","A_first"
77,211,211,"1","1","4",0.574518,0,0,"1","ldrc_0_054","1",1,"1","A_first"
78,214,214,"0","0","1",0.520558,0,0,"1","ldrc_0_054","1",1,"1","A_first"
79,216,216,"0","0","1",0.482829,0,0,"1","ldrc_0_054","1",1,"1","A_first"
80,219,219.01,"0","0","1",0.509696,0,0,"1","ldrc_0_054","1",1,"1","A_first"
81,221,221.01,"0","0","1",0.744894,0,0,"1","ldrc_0_054","1",1,"1","A_first"
82,225,225.01,"3","1","0",0,1,0.3,"4","ldrc_0_054","1",1,"1","A_first"
83,227,227.01,"1","1","4",0.927643,0,0,"1","ldrc_0_054","1",1,"1","A_first"
84,229,229.01,"3","1","0",0,1,0.35,"4","ldrc_0_054","1",1,"1","A_first"
85,231,231.01,"2","0","1",0.440192,1,0.4,"3","ldrc_0_054","1",1,"1","A_first"
86,233,233.01,"3","1","4",0.447349,1,0.35,"3","ldrc_0_054","1",1,"1","A_first"
87,238,238.01,"1","1","4",0.72634,0,0,"1","ldrc_0_054","1",1,"1","A_first"
88,240,240.01,"1","1","4",0.685655,0,0,"1","ldrc_0_054","1",1,"1","A_first"
89,244,244.02,"1","1","4",0.661066,0,0,"1","ldrc_0_054","1",1,"1","A_first"
90,246,246.02,"0","0","1",0.886329,0,0,"1","ldrc_0_054","1",1,"1","A_first"
91,248,248,"1","1","4",0.585199,0,0,"1","ldrc_0_054","1",1,"1","A_first"
92,250,250,"1","1","4",0.473421,0,0,"1","ldrc_0_054","1",1,"1","A_first"
93,252,252,"1","1","4",0.456634,0,0,"1","ldrc_0_054","1",1,"1","A_first"
94,255,255,"2","0","0",0,1,0.3,"4","ldrc_0_054","1",1,"1","A_first"
95,257,257.01,"1","1","4",0.700793,0,0,"1","ldrc_0_054","1",1,"1","A_first"
96,259,259.01,"0","0","1",0.607038,0,0,"1","ldrc_0_054","1",1,"1","A_first"
97,261,261.01,"0","0","4",0.53831,0,0,"0","ldrc_0_054","1",1,"1","A_first"
98,263,263.01,"3","1","4",0.512445,1,0.35,"3","ldrc_0_054","1",1,"1","A_first"
99,265,265.01,"0","0","1",0.458737,0,0,"1","ldrc_0_054","1",1,"1","A_first"
100,267,267.01,"1","1","4",0.54691,0,0,"1","ldrc_0_054","1",1,"1","A_first"
101,269,269.01,"0","0","1",0.396179,0,0,"1","ldrc_0_054","1",1,"1","A_first"
102,274,274.01,"3","1","4",0.547278,1,0.3,"3","ldrc_0_054","1",1,"1","A_first"
103,276,276.01,"2","0","1",0.409606,1,0.25,"3","ldrc_0_054","1",1,"1","A_first"
104,279,279.01,"0","0","1",0.59829,0,0,"1","ldrc_0_054","1",1,"1","A_first"
105,281,281.01,"0","0","1",0.851616,0,0,"1","ldrc_0_054","1",1,"1","A_first"
106,286,286.02,"1","1","4",0.470639,0,0,"1","ldrc_0_054","1",1,"1","A_first"
107,290,290,"1","1","4",0.886936,0,0,"1","ldrc_0_054","1",1,"1","A_first"
108,293,293,"0","0","1",0.57263,0,0,"1","ldrc_0_054","1",1,"1","A_first"
109,295,295,"0","0","1",0.70885,0,0,"1","ldrc_0_054","1",1,"1","A_first"
110,297,297,"1","1","4",0.899121,0,0,"1","ldrc_0_054","1",1,"1","A_first"
111,300,300.01,"0","0","1",0.583798,0,0,"1","ldrc_0_054","1",1,"1","A_first"
112,302,302.01,"0","0","1",0.810295,0,0,"1","ldrc_0_054","1",1,"1","A_first"
113,308,308.01,"3","1","0",0,1,0.2,"4","ldrc_0_054","1",1,"1","A_first"
114,310,310.01,"0","0","1",0.953134,0,0,"1","ldrc_0_054","1",1,"1","A_first"
115,312,312.01,"2","0","0",0,1,0.25,"4","ldrc_0_054","1",1,"1","A_first"
116,314,314.01,"0","0","1",0.730585,0,0,"1","ldrc_0_054","1",1,"1","A_first"
117,316,316.01,"0","0","1",0.754786,0,0,"1","ldrc_0_054","1",1,"1","A_first"
118,318,318.01,"0","0","1",0.751073,0,0,"1","ldrc_0_054","1",1,"1","A_first"
119,324,324.02,"1","1","4",0.898683,0,0,"1","ldrc_0_054","1",1,"1","A_first"
120,326,326.02,"1","1","4",0.62296,0,0,"1","ldrc_0_054","1",1,"1","A_first"
121,329,329.02,"0","0","1",0.604863,0,0,"1","ldrc_0_054","1",1,"1","A_first"
122,331,331,"0","0","1",0.59167,0,0,"1","ldrc_0_054","1",1,"1","A_first"
123,333,333,"1","1","4",0.915042,0,0,"1","ldrc_0_054","1",1,"1","A_first"
124,337,337,"1","1","4",0.606463,0,0,"1","ldrc_0_054","1",1,"1","A_first"
125,339,339.01,"2","0","1",0.42673,1,0.3,"3","ldrc_0_054","1",1,"1","A_first"
126,344,344.01,"1","1","4",0.777741,0,0,"1","ldrc_0_054","1",1,"1","A_first"
127,346,346.01,"0","0","1",0.464024,0,0,"1","ldrc_0_054","1",1,"1","A_first"
0,0,0.02,"1","1","4",0.758538,0,0,"1","ldrc_0_054","2",1,"1","A_first"
1,2,2.02,"1","1","4",0.539711,0,0,"1","ldrc_0_054","2",1,"1","A_first"
2,5,5.02,"1","1","4",0.420541,0,0,"1","ldrc_0_054","2",1,"1","A_first"
3,12,12,"0","0","1",0.542485,0,0,"1","ldrc_0_054","2",1,"1","A_first"
4,14,14.01,"3","1","4",0.421882,1,0.25,"3","ldrc_0_054","2",1,"1","A_first"
5,16,16.01,"3","1","0",0,1,0.2,"4","ldrc_0_054","2",1,"1","A_first"
6,18,18.01,"2","0","0",0,1,0.25,"4","ldrc_0_054","2",1,"1","A_first"
7,21,21.01,"0","0","1",0.76212,0,0,"1","ldrc_0_054","2",1,"1","A_first"
8,23,23.01,"1","1","4",0.476284,0,0,"1","ldrc_0_054","2",1,"1","A_first"
9,25,25.01,"0","0","1",0.356437,0,0,"1","ldrc_0_054","2",1,"1","A_first"
10,34,34.01,"0","0","1",0.458009,0,0,"1","ldrc_0_054","2",1,"1","A_first"
11,36,36.01,"1","1","4",0.579339,0,0,"1","ldrc_0_054","2",1,"1","A_first"
12,39,39.02,"1","1","4",0.608244,0,0,"1","ldrc_0_054","2",1,"1","A_first"
13,41,41.02,"0","0","1",0.611406,0,0,"1","ldrc_0_054","2",1,"1","A_first"
14,43,43.02,"0","0","0",0,0,0,"5","ldrc_0_054","2",1,"1","A_first"
15,46,46.02,"0","0","1",0.580491,0,0,"1","ldrc_0_054","2",1,"1","A_first"
16,48,48,"1","1","4",0.536478,0,0,"1","ldrc_0_054","2",1,"1","A_first"
17,51,51,"1","1","4",0.798199,0,0,"1","ldrc_0_054","2",1,"1","A_first"
18,56,56.01,"3","1","0",0,1,0.3,"4","ldrc_0_054","2",1,"1","A_first"
19,58,58.01,"3","1","0",0,1,0.35,"4","ldrc_0_054","2",1,"1","A_first"
20,61,61.01,"0","0","1",0.515389,0,0,"1","ldrc_0_054","2",1,"1","A_first"
21,63,63.01,"3","1","0",0,1,0.4,"4","ldrc_0_054","2",1,"1","A_first"
22,66,66.01,"1","1","4",0.546505,0,0,"1","ldrc_0_054","2",1,"1","A_first"
23,69,69.01,"1","1","4",0.680375,0,0,"1","ldrc_0_054","2",1,"1","A_first"
24,71,71.01,"0","0","1",0.486513,0,0,"1","ldrc_0_054","2",1,"1","A_first"
25,73,73.01,"0","0","1",0.664756,0,0,"1","ldrc_0_054","2",1,"1","A_first"
26,75,75.01,"0","0","1",0.86187,0,0,"1","ldrc_0_054","2",1,"1","A_first"
27,77,77.01,"1","1","4",0.615344,0,0,"1","ldrc_0_054","2",1,"1","A_first"
28,79,79.02,"1","1","4",0.610663,0,0,"1","ldrc_0_054","2",1,"1","A_first"
29,81,81.02,"1","1","4",0.493736,0,0,"1","ldrc_0_054","2",1,"1","A_first"
30,83,83.02,"0","0","1",0.60101,0,0,"1","ldrc_0_054","2",1,"1","A_first"
31,86,86,"2","0","1",0.666468,1,0.45,"3","ldrc_0_054","2",1,"1","A_first"
32,88,88,"2","0","0",0,1,0.4,"4","ldrc_0_054","2",1,"1","A_first"
33,90,90,"3","1","0",0,1,0.45,"4","ldrc_0_054","2",1,"1","A_first"
34,93,93,"1","1","4",0.5789,0,0,"1","ldrc_0_054","2",1,"1","A_first"
35,95,95.01,"1","1","4",0.811139,0,0,"1","ldrc_0_054","2",1,"1","A_first"
36,97,97.01,"1","1","4",0.688293,0,0,"1","ldrc_0_054","2",1,"1","A_first"
37,100,100.01,"0","0","1",0.467098,0,0,"1","ldrc_0_054","2",1,"1","A_first"
38,103,103.01,"0","0","4",0.593072,0,0,"0","ldrc_0_054","2",1,"1","A_first"
39,105,105.01,"0","0","1",0.628248,0,0,"1","ldrc_0_054","2",1,"1","A_first"
40,108,108.01,"0","0","1",0.556139,0,0,"1","ldrc_0_054","2",1,"1","A_first"
41,110,110.01,"0","0","1",0.633357,0,0,"1","ldrc_0_054","2",1,"1","A_first"
42,112,112.01,"2","0","1",0.670557,1,0.5,"3","ldrc_0_054","2",1,"1","A_first"
43,114,114.01,"3","1","4",0.520811,1,0.45,"3","ldrc_0_054","2",1,"1","A_first"
44,116,116.01,"3","1","4",0.632245,1,0.4,"3","ldrc_0_054","2",1,"1","A_first"
45,121,121.02,"1","1","4",0.744119,0,0,"1","ldrc_0_054","2",1,"1","A_first"
46,123,123.02,"1","1","4",0.703287,0,0,"1","ldrc_0_054","2",1,"1","A_first"
47,125,125.02,"1","1","4",0.582432,0,0,"1","ldrc_0_054","2",1,"1","A_first"
48,128,128,"0","0","1",0.624964,0,0,"1","ldrc_0_054","2",1,"1","A_first"
49,130,130,"3","1","4",0.513191,1,0.35,"3","ldrc_0_054","2",1,"1","A_first"
50,132,132,"0","0","1",0.580482,0,0,"1","ldrc_0_054","2",1,"1","A_first"
51,134,134,"1","1","4",0.570765,0,0,"1","ldrc_0_054","2",1,"1","A_first"
52,136,136.01,"0","0","1",0.626013,0,0,"1","ldrc_0_054","2",1,"1","A_first"
53,139,139.01,"2","0","0",0,1,0.3,"4","ldrc_0_054","2",1,"1","A_first"
54,144,144.01,"0","0","1",0.593955,0,0,"1","ldrc_0_054","2",1,"1","A_first"
55,147,147.01,"0","0","1",0.579766,0,0,"1","ldrc_0_054","2",1,"1","A_first"
56,149,149.01,"1","1","4",0.81709,0,0,"1","ldrc_0_054","2",1,"1","A_first"
57,153,153.01,"1","1","4",0.596502,0,0,"1","ldrc_0_054","2",1,"1","A_first"
58,155,155.01,"0","0","1",0.666802,0,0,"1","ldrc_0_054","2",1,"1","A_first"
59,157,157.01,"3","1","4",0.479035,1,0.35,"3","ldrc_0_054","2",1,"1","A_first"
60,163,163.02,"1","1","4",0.506739,0,0,"1","ldrc_0_054","2",1,"1","A_first"
61,165,165.02,"0","0","1",0.655943,0,0,"1","ldrc_0_054","2",1,"1","A_first"
62,167,167,"0","0","1",0.618741,0,0,"1","ldrc_0_054","2",1,"1","A_first"
63,169,169,"1","1","4",0.613149,0,0,"1","ldrc_0_054","2",1,"1","A_first"
64,174,174,"0","0","1",0.638069,0,0,"1","ldrc_0_054","2",1,"1","A_first"
65,177,177.01,"0","0","1",0.76304,0,0,"1","ldrc_0_054","2",1,"1","A_first"
66,179,179.01,"1","1","4",0.80438,0,0,"1","ldrc_0_054","2",1,"1","A_first"
67,181,181.01,"0","0","0",0,0,0,"5","ldrc_0_054","2",1,"1","A_first"
68,183,183.01,"1","1","4",0.426629,0,0,"1","ldrc_0_054","2",1,"1","A_first"
69,186,186.01,"3","1","0",0,1,0.3,"4","ldrc_0_054","2",1,"1","A_first"
70,188,188.01,"3","1","4",0.527716,1,0.35,"3","ldrc_0_054","2",1,"1","A_first"
71,192,192.01,"0","0","1",0.601143,0,0,"1","ldrc_0_054","2",1,"1","A_first"
72,195,195.01,"0","0","1",0.777106,0,0,"1","ldrc_0_054","2",1,"1","A_first"
73,197,197.01,"3","1","0",0,1,0.3,"4","ldrc_0_054","2",1,"1","A_first"
74,199,199.01,"1","1","4",0.932649,0,0,"1","ldrc_0_054","2",1,"1","A_first"
75,203,203.02,"0","0","1",0.622035,0,0,"1","ldrc_0_054","2",1,"1","A_first"
76,206,206.02,"0","0","1",0.63088,0,0,"1","ldrc_0_054","2",1,"1","A_first"
77,208,208,"1","1","4",0.840762,0,0,"1","ldrc_0_054","2",1,"1","A_first"
78,210,210,"0","0","1",0.546901,0,0,"1","ldrc_0_054","2",1,"1","A_first"
79,214,214,"3","1","0",0,1,0.35,"4","ldrc_0_054","2",1,"1","A_first"
80,217,217.01,"2","0","0",0,1,0.4,"4","ldrc_0_054","2",1,"1","A_first"
81,219,219.01,"0","0","1",0.800432,0,0,"1","ldrc_0_054","2",1,"1","A_first"
82,221,221.01,"1","1","4",0.656839,0,0,"1","ldrc_0_054","2",1,"1","A_first"
83,223,223.01,"0","0","1",0.614073,0,0,"1","ldrc_0_054","2",1,"1","A_first"
84,225,225.01,"0","0","1",0.443285,0,0,"1","ldrc_0_054","2",1,"1","A_first"
85,227,227.01,"1","1","4",0.652572,0,0,"1","ldrc_0_054","2",1,"1","A_first"
86,230,230.01,"1","1","4",0.572241,0,0,"1","ldrc_0_054","2",1,"1","A_first"
87,232,232.01,"1","1","4",0.800491,0,0,"1","ldrc_0_054","2",1,"1","A_first"
88,234,234.01,"0","0","1",0.803799,0,0,"1","ldrc_0_054","2",1,"1","A_first"
89,238,238.01,"0","0","1",0.820347,0,0,"1","ldrc_0_054","2",1,"1","A_first"
90,240,240.01,"0","0","1",0.86933,0,0,"1","ldrc_0_054","2",1,"1","A_first"
91,242,242.02,"0","0","1",0.756715,0,0,"1","ldrc_0_054","2",1,"1","A_first"
92,249,249.02,"1","1","4",0.780022,0,0,"1","ldrc_0_054","2",1,"1","A_first"
93,253,253,"1","1","4",0.710197,0,0,"1","ldrc_0_054","2",1,"1","A_first"
94,257,257.01,"2","0","1",0.796772,1,0.45,"3","ldrc_0_054","2",1,"1","A_first"
95,259,259.01,"3","1","0",0,1,0.4,"4","ldrc_0_054","2",1,"1","A_first"
96,261,261.01,"2","0","0",0,1,0.45,"4","ldrc_0_054","2",1,"1","A_first"
97,265,265.01,"0","0","1",0.5756,0,0,"1","ldrc_0_054","2",1,"1","A_first"
98,271,271.01,"2","0","1",0.80029,1,0.5,"3","ldrc_0_054","2",1,"1","A_first"
99,276,276.01,"2","0","0",0,1,0.45,"4","ldrc_0_054","2",1,"1","A_first"
100,278,278.01,"2","0","0",0,1,0.5,"4","ldrc_0_054","2",1,"1","A_first"
101,280,280.01,"1","1","4",0.589889,0,0,"1","ldrc_0_054","2",1,"1","A_first"
102,282,282.02,"1","1","4",0.625138,0,0,"1","ldrc_0_054","2",1,"1","A_first"
103,284,284.02,"0","0","0",0,0,0,"5","ldrc_0_054","2",1,"1","A_first"
104,286,286.02,"1","1","4",0.72761,0,0,"1","ldrc_0_054","2",1,"1","A_first"
105,288,288.02,"1","1","4",0.563793,0,0,"1","ldrc_0_054","2",1,"1","A_first"
106,291,291,"2","0","1",0.515105,1,0.55,"3","ldrc_0_054","2",1,"1","A_first"
107,295,295,"0","0","1",0.585647,0,0,"1","ldrc_0_054","2",1,"1","A_first"
108,298,298.01,"2","0","0",0,1,0.5,"4","ldrc_0_054","2",1,"1","A_first"
109,300,300.01,"2","0","0",0,1,0.55,"4","ldrc_0_054","2",1,"1","A_first"
110,302,302.01,"0","0","1",0.599147,0,0,"1","ldrc_0_054","2",1,"1","A_first"
111,305,305.01,"1","1","4",0.483062,0,0,"1","ldrc_0_054","2",1,"1","A_first"
112,307,307.01,"1","1","4",0.619228,0,0,"1","ldrc_0_054","2",1,"1","A_first"
113,309,309.01,"0","0","1",0.585384,0,0,"1","ldrc_0_054","2",1,"1","A_first"
114,312,312.01,"3","1","4",0.555198,1,0.6,"3","ldrc_0_054","2",1,"1","A_first"
115,317,317.01,"0","0","1",0.555336,0,0,"1","ldrc_0_054","2",1,"1","A_first"
116,319,319.01,"1","1","4",0.463682,0,0,"1","ldrc_0_054","2",1,"1","A_first"
117,321,321.01,"0","0","1",0.582824,0,0,"1","ldrc_0_054","2",1,"1","A_first"
118,323,323.02,"0","0","1",0.865046,0,0,"1","ldrc_0_054","2",1,"1","A_first"
119,325,325.02,"1","1","4",0.56139,0,0,"1","ldrc_0_054","2",1,"1","A_first"
120,329,329.02,"2","0","1",0.567431,1,0.55,"3","ldrc_0_054","2",1,"1","A_first"
121,331,331,"1","1","4",0.965685,0,0,"1","ldrc_0_054","2",1,"1","A_first"
122,335,335,"1","1","4",0.743158,0,0,"1","ldrc_0_054","2",1,"1","A_first"
123,337,337,"1","1","4",0.650373,0,0,"1","ldrc_0_054","2",1,"1","A_first"
124,339,339.01,"1","1","4",0.424555,0,0,"1","ldrc_0_054","2",1,"1","A_first"
125,341,341.01,"1","1","4",0.595686,0,0,"1","ldrc_0_054","2",1,"1","A_first"
126,343,343.01,"1","1","4",0.508851,0,0,"1","ldrc_0_054","2",1,"1","A_first"
127,348,348.01,"2","0","1",0.577057,1,0.5,"3","ldrc_0_054","2",1,"1","A_first"
0,0,0.02,"1","1","4",0.919933,0,0,"1","ldrc_0_057","2",1,"1","A_first"
1,2,2.02,"1","1","4",0.580042,0,0,"1","ldrc_0_057","2",1,"1","A_first"
2,5,5.02,"1","1","4",0.624001,0,0,"1","ldrc_0_057","2",1,"1","A_first"
3,12,12,"0","0","1",0.698995,0,0,"1","ldrc_0_057","2",1,"1","A_first"
4,14,14.01,"3","1","0",0,1,0.25,"4","ldrc_0_057","2",1,"1","A_first"
5,16,16.01,"3","1","4",0.491445,1,0.3,"3","ldrc_0_057","2",1,"1","A_first"
6,18,18.01,"2","0","0",0,1,0.25,"4","ldrc_0_057","2",1,"1","A_first"
7,21,21.01,"0","0","1",0.733511,0,0,"1","ldrc_0_057","2",1,"1","A_first"
8,23,23.01,"1","1","4",0.693802,0,0,"1","ldrc_0_057","2",1,"1","A_first"
9,25,25.01,"0","0","1",0.457076,0,0,"1","ldrc_0_057","2",1,"1","A_first"
10,34,34.01,"0","0","1",0.610599,0,0,"1","ldrc_0_057","2",1,"1","A_first"
11,36,36.01,"1","1","4",0.834774,0,0,"1","ldrc_0_057","2",1,"1","A_first"
12,39,39.02,"1","1","0",0,0,0,"5","ldrc_0_057","2",1,"1","A_first"
13,41,41.02,"0","0","1",0.729789,0,0,"1","ldrc_0_057","2",1,"1","A_first"
14,43,43.02,"0","0","1",0.540158,0,0,"1","ldrc_0_057","2",1,"1","A_first"
15,46,46,"0","0","1",0.593564,0,0,"1","ldrc_0_057","2",1,"1","A_first"
16,48,48,"1","1","4",0.85184,0,0,"1","ldrc_0_057","2",1,"1","A_first"
17,51,51,"1","1","4",0.720729,0,0,"1","ldrc_0_057","2",1,"1","A_first"
18,56,56.01,"3","1","0",0,1,0.3,"4","ldrc_0_057","2",1,"1","A_first"
19,58,58.01,"3","1","0",0,1,0.35,"4","ldrc_0_057","2",1,"1","A_first"
20,61,61.01,"0","0","1",0.751891,0,0,"1","ldrc_0_057","2",1,"1","A_first"
21,63,63.01,"3","1","0",0,1,0.4,"4","ldrc_0_057","2",1,"1","A_first"
22,66,66.01,"1","1","4",0.76597,0,0,"1","ldrc_0_057","2",1,"1","A_first"
23,69,69.01,"1","1","4",0.681864,0,0,"1","ldrc_0_057","2",1,"1","A_first"
24,71,71.01,"0","0","1",0.726979,0,0,"1","ldrc_0_057","2",1,"1","A_first"
25,73,73.01,"0","0","1",0.82829,0,0,"1","ldrc_0_057","2",1,"1","A_first"
26,75,75.01,"0","0","1",0.838593,0,0,"1","ldrc_0_057","2",1,"1","A_first"
27,77,77.01,"1","1","4",0.699781,0,0,"1","ldrc_0_057","2",1,"1","A_first"
28,79,79.02,"1","1","4",0.715,0,0,"1","ldrc_0_057","2",1,"1","A_first"
29,81,81.02,"1","1","4",0.524217,0,0,"1","ldrc_0_057","2",1,"1","A_first"
30,83,83.02,"0","0","1",0.784427,0,0,"1","ldrc_0_057","2",1,"1","A_first"
31,86,86.02,"2","0","1",0.633272,1,0.45,"3","ldrc_0_057","2",1,"1","A_first"
32,88,88,"2","0","0",0,1,0.4,"4","ldrc_0_057","2",1,"1","A_first"
33,90,90,"3","1","0",0,1,0.45,"4","ldrc_0_057","2",1,"1","A_first"
34,93,93,"1","1","0",0,0,0,"5","ldrc_0_057","2",1,"1","A_first"
35,95,95.01,"1","1","4",0.493479,0,0,"1","ldrc_0_057","2",1,"1","A_first"
36,97,97.01,"1","1","4",0.368818,0,0,"1","ldrc_0_057","2",1,"1","A_first"
37,100,100.01,"0","0","1",0.630637,0,0,"1","ldrc_0_057","2",1,"1","A_first"
38,103,103.01,"0","0","1",0.578415,0,0,"1","ldrc_0_057","2",1,"1","A_first"
39,105,105.01,"0","0","0",0,0,0,"5","ldrc_0_057","2",1,"1","A_first"
40,108,108.01,"0","0","1",0.543581,0,0,"1","ldrc_0_057","2",1,"1","A_first"
41,110,110.01,"0","0","1",0.442746,0,0,"1","ldrc_0_057","2",1,"1","A_first"
42,112,112.01,"2","0","1",0.335053,1,0.5,"3","ldrc_0_057","2",1,"1","A_first"
43,114,114.01,"3","1","0",0,1,0.45,"4","ldrc_0_057","2",1,"1","A_first"
44,116,116.01,"3","1","0",0,1,0.5,"4","ldrc_0_057","2",1,"1","A_first"
45,121,121.02,"1","1","4",0.686597,0,0,"1","ldrc_0_057","2",1,"1","A_first"
46,123,123.02,"1","1","4",0.529809,0,0,"1","ldrc_0_057","2",1,"1","A_first"
47,125,125,"1","1","4",0.535615,0,0,"1","ldrc_0_057","2",1,"1","A_first"
48,128,128,"0","0","1",0.765594,0,0,"1","ldrc_0_057","2",1,"1","A_first"
49,130,130,"3","1","4",0.739766,1,0.55,"3","ldrc_0_057","2",1,"1","A_first"
50,132,132,"0","0","1",0.810887,0,0,"1","ldrc_0_057","2",1,"1","A_first"
51,134,134,"1","1","4",0.925256,0,0,"1","ldrc_0_057","2",1,"1","A_first"
52,136,136.01,"0","0","1",0.775348,0,0,"1","ldrc_0_057","2",1,"1","A_first"
53,139,139.01,"2","0","0",0,1,0.5,"4","ldrc_0_057","2",1,"1","A_first"
54,144,144.01,"0","0","1",0.604418,0,0,"1","ldrc_0_057","2",1,"1","A_first"
55,147,147.01,"0","0","1",0.642232,0,0,"1","ldrc_0_057","2",1,"1","A_first"
56,149,149.01,"1","1","4",0.658568,0,0,"1","ldrc_0_057","2",1,"1","A_first"
57,153,153.01,"1","1","4",0.796004,0,0,"1","ldrc_0_057","2",1,"1","A_first"
58,155,155.01,"0","0","1",0.77326,0,0,"1","ldrc_0_057","2",1,"1","A_first"
59,157,157.01,"3","1","4",0.72948,1,0.55,"3","ldrc_0_057","2",1,"1","A_first"
60,163,163.02,"1","1","4",0.79228,0,0,"1","ldrc_0_057","2",1,"1","A_first"
61,165,165.02,"0","0","0",0,0,0,"5","ldrc_0_057","2",1,"1","A_first"
62,167,167,"0","0","1",0.574271,0,0,"1","ldrc_0_057","2",1,"1","A_first"
63,169,169,"1","1","4",0.835455,0,0,"1","ldrc_0_057","2",1,"1","A_first"
64,174,174,"0","0","1",0.665612,0,0,"1","ldrc_0_057","2",1,"1","A_first"
65,177,177.01,"0","0","1",0.695404,0,0,"1","ldrc_0_057","2",1,"1","A_first"
66,179,179.01,"1","1","4",0.809869,0,0,"1","ldrc_0_057","2",1,"1","A_first"
67,181,181.01,"0","0","1",0.758877,0,0,"1","ldrc_0_057","2",1,"1","A_first"
68,183,183.01,"1","1","4",0.936123,0,0,"1","ldrc_0_057","2",1,"1","A_first"
69,186,186.01,"3","1","0",0,1,0.5,"4","ldrc_0_057","2",1,"1","A_first"
70,188,188.01,"3","1","4",0.739199,1,0.55,"3","ldrc_0_057","2",1,"1","A_first"
71,192,192.01,"0","0","1",0.621625,0,0,"1","ldrc_0_057","2",1,"1","A_first"
72,195,195.01,"0","0","1",0.622491,0,0,"1","ldrc_0_057","2",1,"1","A_first"
73,197,197.01,"3","1","4",0.555747,1,0.5,"3","ldrc_0_057","2",1,"1","A_first"
74,199,199.01,"1","1","0",0,0,0,"5","ldrc_0_057","2",1,"1","A_first"
75,203,203.02,"0","0","1",0.788509,0,0,"1","ldrc_0_057","2",1,"1","A_first"
76,206,206.02,"0","0","1",0.790229,0,0,"1","ldrc_0_057","2",1,"1","A_first"
77,208,208,"1","1","4",0.911981,0,0,"1","ldrc_0_057","2",1,"1","A_first"
78,210,210,"0","0","1",0.620501,0,0,"1","ldrc_0_057","2",1,"1","A_first"
79,214,214,"3","1","0",0,1,0.45,"4","ldrc_0_057","2",1,"1","A_first"
80,217,217.01,"2","0","0",0,1,0.5,"4","ldrc_0_057","2",1,"1","A_first"
81,219,219.01,"0","0","1",0.770993,0,0,"1","ldrc_0_057","2",1,"1","A_first"
82,221,221.01,"1","1","4",0.54533,0,0,"1","ldrc_0_057","2",1,"1","A_first"
83,223,223.01,"0","0","1",0.859674,0,0,"1","ldrc_0_057","2",1,"1","A_first"
84,225,225.01,"0","0","1",0.903692,0,0,"1","ldrc_0_057","2",1,"1","A_first"
85,227,227.01,"1","1","0",0,0,0,"5","ldrc_0_057","2",1,"1","A_first"
86,230,230.01,"1","1","1",0.58474,0,0,"0","ldrc_0_057","2",1,"1","A_first"
87,232,232.01,"1","1","4",0.585977,0,0,"1","ldrc_0_057","2",1,"1","A_first"
88,234,234.01,"0","0","1",0.969339,0,0,"1","ldrc_0_057","2",1,"1","A_first"
89,238,238.01,"0","0","1",0.997818,0,0,"1","ldrc_0_057","2",1,"1","A_first"
90,240,240.01,"0","0","0",0,0,0,"5","ldrc_0_057","2",1,"1","A_first"
91,242,242.02,"0","0","1",0.390142,0,0,"1","ldrc_0_057","2",1,"1","A_first"
92,249,249.02,"1","1","4",0.968477,0,0,"1","ldrc_0_057","2",1,"1","A_first"
93,253,253,"1","1","4",0.913868,0,0,"1","ldrc_0_057","2",1,"1","A_first"
94,257,257.01,"2","0","0",0,1,0.55,"4","ldrc_0_057","2",1,"1","A_first"
95,259,259.01,"3","1","4",0.657364,1,0.6,"3","ldrc_0_057","2",1,"1","A_first"
96,261,261.01,"2","0","0",0,1,0.55,"4","ldrc_0_057","2",1,"1","A_first"
97,265,265.01,"0","0","1",0.891042,0,0,"1","ldrc_0_057","2",1,"1","A_first"
98,271,271.01,"2","0","1",0.717692,1,0.6,"3","ldrc_0_057","2",1,"1","A_first"
99,276,276.01,"2","0","0",0,1,0.55,"4","ldrc_0_057","2",1,"1","A_first"
100,278,278.01,"2","0","0",0,1,0.6,"4","ldrc_0_057","2",1,"1","A_first"
101,280,280.01,"1","1","0",0,0,0,"5","ldrc_0_057","2",1,"1","A_first"
102,282,282.02,"1","1","4",0.428546,0,0,"1","ldrc_0_057","2",1,"1","A_first"
103,284,284.02,"0","0","4",0.417703,0,0,"0","ldrc_0_057","2",1,"1","A_first"
104,286,286.02,"1","1","4",0.712995,0,0,"1","ldrc_0_057","2",1,"1","A_first"
105,288,288.02,"1","1","4",0.555091,0,0,"1","ldrc_0_057","2",1,"1","A_first"
106,291,291,"2","0","1",0.618602,1,0.65,"3","ldrc_0_057","2",1,"1","A_first"
107,295,295,"0","0","0",0,0,0,"5","ldrc_0_057","2",1,"1","A_first"
108,298,298.01,"2","0","1",0.523143,1,0.6,"3","ldrc_0_057","2",1,"1","A_first"
109,300,300.01,"2","0","1",0.588262,1,0.55,"3","ldrc_0_057","2",1,"1","A_first"
110,302,302.01,"0","0","1",0.585477,0,0,"1","ldrc_0_057","2",1,"1","A_first"
111,305,305.01,"1","1","4",0.59937,0,0,"1","ldrc_0_057","2",1,"1","A_first"
112,307,307.01,"1","1","4",0.918765,0,0,"1","ldrc_0_057","2",1,"1","A_first"
113,309,309.01,"0","0","1",0.680809,0,0,"1","ldrc_0_057","2",1,"1","A_first"
114,312,312.01,"3","1","4",0.95883,1,0.5,"3","ldrc_0_057","2",1,"1","A_first"
115,317,317.01,"0","0","0",0,0,0,"5","ldrc_0_057","2",1,"1","A_first"
116,319,319.01,"1","1","4",0.657924,0,0,"1","ldrc_0_057","2",1,"1","A_first"
117,321,321.01,"0","0","1",0.694214,0,0,"1","ldrc_0_057","2",1,"1","A_first"
118,323,323.02,"0","0","1",0.671517,0,0,"1","ldrc_0_057","2",1,"1","A_first"
119,325,325.02,"1","1","4",0.609672,0,0,"1","ldrc_0_057","2",1,"1","A_first"
120,329,329.02,"2","0","0",0,1,0.45,"4","ldrc_0_057","2",1,"1","A_first"
121,331,331,"1","1","4",0.980978,0,0,"1","ldrc_0_057","2",1,"1","A_first"
122,335,335,"1","1","4",0.639613,0,0,"1","ldrc_0_057","2",1,"1","A_first"
123,337,337,"1","1","4",0.699913,0,0,"1","ldrc_0_057","2",1,"1","A_first"
124,339,339.01,"1","1","4",0.589074,0,0,"1","ldrc_0_057","2",1,"1","A_first"
125,341,341.01,"1","1","4",0.934279,0,0,"1","ldrc_0_057","2",1,"1","A_first"
126,343,343.01,"1","1","4",0.646496,0,0,"1","ldrc_0_057","2",1,"1","A_first"
127,348,348.01,"2","0","1",0.802547,1,0.5,"3","ldrc_0_057","2",1,"1","A_first"
0,0,0.02,"1","1","0",0,0,0,"5","ldrc_1_004","1",1,"1","A_first"
1,2,2.02,"1","1","4",0.541895,0,0,"1","ldrc_1_004","1",1,"1","A_first"
2,5,5.02,"1","1","4",0.608853,0,0,"1","ldrc_1_004","1",1,"1","A_first"
3,12,12,"0","0","1",0.600767,0,0,"1","ldrc_1_004","1",1,"1","A_first"
4,14,14.01,"3","1","4",0.4842,1,0.25,"3","ldrc_1_004","1",1,"1","A_first"
5,16,16.01,"3","1","4",0.551307,1,0.2,"3","ldrc_1_004","1",1,"1","A_first"
6,18,18.01,"2","0","1",0.549525,1,0.15,"3","ldrc_1_004","1",1,"1","A_first"
7,21,21.01,"0","0","1",0.880471,0,0,"1","ldrc_1_004","1",1,"1","A_first"
8,23,23.01,"1","1","4",0.577645,0,0,"1","ldrc_1_004","1",1,"1","A_first"
9,25,25.01,"0","0","1",0.362865,0,0,"1","ldrc_1_004","1",1,"1","A_first"
10,34,34.01,"0","0","1",0.6064,0,0,"1","ldrc_1_004","1",1,"1","A_first"
11,36,36.01,"1","1","1",0.560612,0,0,"0","ldrc_1_004","1",1,"1","A_first"
12,39,39.02,"1","1","4",0.590412,0,0,"1","ldrc_1_004","1",1,"1","A_first"
13,41,41.02,"0","0","1",0.429674,0,0,"1","ldrc_1_004","1",1,"1","A_first"
14,43,43.02,"0","0","4",0.28981,0,0,"0","ldrc_1_004","1",1,"1","A_first"
15,46,46,"0","0","1",0.519469,0,0,"1","ldrc_1_004","1",1,"1","A_first"
16,48,48,"1","1","4",0.534664,0,0,"1","ldrc_1_004","1",1,"1","A_first"
17,51,51,"1","1","4",0.547564,0,0,"1","ldrc_1_004","1",1,"1","A_first"
18,56,56.01,"3","1","0",0,1,0.1,"4","ldrc_1_004","1",1,"1","A_first"
19,58,58.01,"3","1","0",0,1,0.15,"4","ldrc_1_004","1",1,"1","A_first"
20,61,61.01,"0","0","1",0.573734,0,0,"1","ldrc_1_004","1",1,"1","A_first"
21,63,63.01,"3","1","4",0.407081,1,0.2,"3","ldrc_1_004","1",1,"1","A_first"
22,66,66.01,"1","1","4",0.479803,0,0,"1","ldrc_1_004","1",1,"1","A_first"
23,69,69.01,"1","1","4",0.51573,0,0,"1","ldrc_1_004","1",1,"1","A_first"
24,71,71.01,"0","0","1",0.52285,0,0,"1","ldrc_1_004","1",1,"1","A_first"
25,73,73.01,"0","0","1",0.625133,0,0,"1","ldrc_1_004","1",1,"1","A_first"
26,75,75.01,"0","0","1",0.661221,0,0,"1","ldrc_1_004","1",1,"1","A_first"
27,77,77.01,"1","1","4",0.508686,0,0,"1","ldrc_1_004","1",1,"1","A_first"
28,79,79.02,"1","1","4",0.45585,0,0,"1","ldrc_1_004","1",1,"1","A_first"
29,81,81.02,"1","1","4",0.526129,0,0,"1","ldrc_1_004","1",1,"1","A_first"
30,83,83.02,"0","0","1",0.584415,0,0,"1","ldrc_1_004","1",1,"1","A_first"
31,86,86.02,"2","0","0",0,1,0.15,"4","ldrc_1_004","1",1,"1","A_first"
32,88,88,"2","0","0",0,1,0.2,"4","ldrc_1_004","1",1,"1","A_first"
33,90,90,"3","1","4",0.478334,1,0.25,"3","ldrc_1_004","1",1,"1","A_first"
34,93,93,"1","1","4",0.709385,0,0,"1","ldrc_1_004","1",1,"1","A_first"
35,95,95.01,"1","1","4",0.49447,0,0,"1","ldrc_1_004","1",1,"1","A_first"
36,97,97.01,"1","1","4",0.550703,0,0,"1","ldrc_1_004","1",1,"1","A_first"
37,100,100.01,"0","0","1",0.503561,0,0,"1","ldrc_1_004","1",1,"1","A_first"
38,103,103.01,"0","0","1",0.547278,0,0,"1","ldrc_1_004","1",1,"1","A_first"
39,105,105.01,"0","0","1",0.565456,0,0,"1","ldrc_1_004","1",1,"1","A_first"
40,108,108.01,"0","0","1",0.670528,0,0,"1","ldrc_1_004","1",1,"1","A_first"
41,110,110.01,"0","0","1",0.643473,0,0,"1","ldrc_1_004","1",1,"1","A_first"
42,112,112.01,"2","0","0",0,1,0.2,"4","ldrc_1_004","1",1,"1","A_first"
43,114,114.01,"3","1","0",0,1,0.25,"4","ldrc_1_004","1",1,"1","A_first"
44,116,116.01,"3","1","0",0,1,0.3,"4","ldrc_1_004","1",1,"1","A_first"
45,121,121.02,"1","1","1",0.837616,0,0,"0","ldrc_1_004","1",1,"1","A_first"
46,123,123.02,"1","1","4",0.576934,0,0,"1","ldrc_1_004","1",1,"1","A_first"
47,125,125.02,"1","1","4",0.631001,0,0,"1","ldrc_1_004","1",1,"1","A_first"
48,128,128,"0","0","1",0.6095,0,0,"1","ldrc_1_004","1",1,"1","A_first"
49,130,130,"3","1","4",0.687722,1,0.35,"3","ldrc_1_004","1",1,"1","A_first"
50,132,132,"0","0","1",0.992035,0,0,"1","ldrc_1_004","1",1,"1","A_first"
51,134,134,"1","1","4",0.464266,0,0,"1","ldrc_1_004","1",1,"1","A_first"
52,136,136.01,"0","0","1",0.609508,0,0,"1","ldrc_1_004","1",1,"1","A_first"
53,139,139.01,"2","0","0",0,1,0.3,"4","ldrc_1_004","1",1,"1","A_first"
54,144,144.01,"0","0","1",0.597402,0,0,"1","ldrc_1_004","1",1,"1","A_first"
55,147,147.01,"0","0","1",0.759233,0,0,"1","ldrc_1_004","1",1,"1","A_first"
56,149,149.01,"1","1","4",0.789497,0,0,"1","ldrc_1_004","1",1,"1","A_first"
57,153,153.01,"1","1","4",0.545109,0,0,"1","ldrc_1_004","1",1,"1","A_first"
58,155,155.01,"0","0","1",0.528121,0,0,"1","ldrc_1_004","1",1,"1","A_first"
59,157,157.01,"3","1","0",0,1,0.35,"4","ldrc_1_004","1",1,"1","A_first"
60,163,163.02,"1","1","4",0.644085,0,0,"1","ldrc_1_004","1",1,"1","A_first"
61,165,165.02,"0","0","1",0.589384,0,0,"1","ldrc_1_004","1",1,"1","A_first"
62,167,167,"0","0","1",0.751172,0,0,"1","ldrc_1_004","1",1,"1","A_first"
63,169,169,"1","1","4",0.597472,0,0,"1","ldrc_1_004","1",1,"1","A_first"
64,174,174,"0","0","1",0.715479,0,0,"1","ldrc_1_004","1",1,"1","A_first"
